trial,fish1_p,fish2_p,fish3_p,fish4_p,fish5_p,pond_p,pond_p2,pond_p3,condsFile,readyMsg,fish1,fish2,fish3,fish4,fish5,pond,pond2,pond3,prac_trials.thisRepN,prac_trials.thisTrialN,prac_trials.thisN,prac_trials.thisIndex,block.thisRepN,block.thisTrialN,block.thisN,block.thisIndex,trials.thisRepN,trials.thisTrialN,trials.thisN,trials.thisIndex,ins1_key.started,ins1_image.started,text_1b.started,ins1_key.keys,ins1_key.rt,ins1_key.duration,text_2.started,ins2_key.started,inst2_image.started,text_3.started,ins3_key.started,inst3_image.started,box_show_2.started,F1_2.started,key_resp_2.started,box_show_2.stopped,key_resp_2.keys,key_resp_2.rt,key_resp_2.duration,fish_key_2.corr,Begin_txt.started,ExpStart_key.started,ExpStart_key.keys,ExpStart_key.rt,ExpStart_key.duration,box_show.started,F1.started,fish_key_button.started,box_show.stopped,fish_key_button.keys,fish_key_button.rt,fish_key_button.duration,fish_key.corr,fish_interval,key_time,breakStart_txt.started,reward_block_chosen,participant,date,expName,psychopyVersion,frameRate,
,,,,,,,,,,,,,,,,,,,,,,,,,,,,,,,15.373777116008569,15.373777116008569,15.373777116008569,space,5.411924438958522,None,,,,,,,,,,,,,,,,,,,,,,,,,,,,,,,,99,2023-07-24_16h00.49.775,FishGame,2023.1.3,59.85603473686067,
1,stimuli/bead_y.PNG,stimuli/blank.JPG,stimuli/blank.JPG,stimuli/blank.JPG,stimuli/blank.JPG,1,2,up,,,,,,,,,,,0,0,0,0,,,,,,,,,,,,,,,20.814886192965787,20.814886192965787,20.814886192965787,24.327726496965624,24.327726496965624,24.327726496965624,26.63716004998423,27.079452175006736,27.079452175006736,27.146080132981297,up,1.7132009729975834,None,1,,,,,,,,,,,,,,,,,,99,2023-07-24_16h00.49.775,FishGame,2023.1.3,59.85603473686067,
2,stimuli/bead_y.PNG,stimuli/bead_y.PNG,stimuli/blank.JPG,stimuli/blank.JPG,stimuli/blank.JPG,1,2,up,,,,,,,,,,,0,1,1,1,,,,,,,,,,,,,,,,,,,,,29.63832339696819,31.11522952397354,31.11522952397354,31.14832956797909,up,0.5340130800032057,None,1,,,,,,,,,,,,,,,,,,99,2023-07-24_16h00.49.775,FishGame,2023.1.3,59.85603473686067,
3,stimuli/bead_y.PNG,stimuli/bead_y.PNG,stimuli/bead_y.PNG,stimuli/blank.JPG,stimuli/blank.JPG,1,2,up,,,,,,,,,,,0,2,2,2,,,,,,,,,,,,,,,,,,,,,32.50641765596811,32.96690292400308,32.96690292400308,33.01693595899269,up,0.7824441830161959,None,1,,,,,,,,,,,,,,,,,,99,2023-07-24_16h00.49.775,FishGame,2023.1.3,59.85603473686067,
4,stimuli/bead_g.PNG,stimuli/bead_y.PNG,stimuli/bead_y.PNG,stimuli/bead_y.PNG,stimuli/blank.JPG,1,2,up,,,,,,,,,,,0,3,3,3,,,,,,,,,,,,,,,,,,,,,34.59508392197313,35.067320376983844,35.067320376983844,35.1006633299985,up,0.9265612640301697,None,1,,,,,,,,,,,,,,,,,,99,2023-07-24_16h00.49.775,FishGame,2023.1.3,59.85603473686067,
5,stimuli/bead_y.PNG,stimuli/bead_g.PNG,stimuli/bead_y.PNG,stimuli/bead_y.PNG,stimuli/bead_y.PNG,1,2,up,,,,,,,,,,,0,4,4,4,,,,,,,,,,,,,,,,,,,,,36.84652903699316,38.30252491298597,38.30252491298597,38.35235980799189,up,0.5088612060062587,None,1,,,,,,,,,,,,,,,,,,99,2023-07-24_16h00.49.775,FishGame,2023.1.3,59.85603473686067,
6,stimuli/bead_y.PNG,stimuli/bead_y.PNG,stimuli/bead_g.PNG,stimuli/bead_y.PNG,stimuli/bead_y.PNG,1,2,up,,,,,,,,,,,0,5,5,5,,,,,,,,,,,,,,,,,,,,,39.66311649297131,40.62027330696583,40.62027330696583,40.670478499960154,up,0.4872762890299782,None,1,,,,,,,,,,,,,,,,,,99,2023-07-24_16h00.49.775,FishGame,2023.1.3,59.85603473686067,
7,stimuli/bead_y.PNG,stimuli/bead_y.PNG,stimuli/bead_y.PNG,stimuli/bead_g.PNG,stimuli/bead_y.PNG,1,2,up,,,,,,,,,,,0,6,6,6,,,,,,,,,,,,,,,,,,,,,41.968542465008795,43.422455371008255,43.422455371008255,43.47214890999021,up,0.601236299960874,None,1,,,,,,,,,,,,,,,,,,99,2023-07-24_16h00.49.775,FishGame,2023.1.3,59.85603473686067,
8,stimuli/bead_b.PNG,stimuli/bead_y.PNG,stimuli/bead_y.PNG,stimuli/bead_y.PNG,stimuli/bead_g.PNG,1,2,up,,,,,,,,,,,0,7,7,7,,,,,,,,,,,,,,,,,,,,,44.88530943496153,46.341452514985576,46.341452514985576,46.39060917100869,up,0.6314870959613472,None,1,,,,,,,,,,,,,,,,,,99,2023-07-24_16h00.49.775,FishGame,2023.1.3,59.85603473686067,
9,stimuli/bead_y.PNG,stimuli/bead_b.PNG,stimuli/bead_y.PNG,stimuli/bead_y.PNG,stimuli/bead_y.PNG,1,2,up,,,,,,,,,,,0,8,8,8,,,,,,,,,,,,,,,,,,,,,47.81907299096929,48.77492325101048,48.77492325101048,48.82499481498962,up,0.5495029059820808,None,1,,,,,,,,,,,,,,,,,,99,2023-07-24_16h00.49.775,FishGame,2023.1.3,59.85603473686067,
10,stimuli/bead_y.PNG,stimuli/bead_y.PNG,stimuli/bead_b.PNG,stimuli/bead_y.PNG,stimuli/bead_y.PNG,1,2,up,,,,,,,,,,,0,9,9,9,,,,,,,,,,,,,,,,,,,,,50.169602256966755,50.64266544597922,50.64266544597922,50.675904756004456,up,0.5742738069966435,None,1,,,,,,,,,,,,,,,,,,99,2023-07-24_16h00.49.775,FishGame,2023.1.3,59.85603473686067,
11,stimuli/bead_g.PNG,stimuli/bead_y.PNG,stimuli/bead_y.PNG,stimuli/bead_b.PNG,stimuli/bead_y.PNG,2,3,right,,,,,,,,,,,0,10,10,10,,,,,,,,,,,,,,,,,,,,,52.07077795499936,53.52766758296639,53.52766758296639,53.57761906599626,up,0.6083897129865363,None,0,,,,,,,,,,,,,,,,,,99,2023-07-24_16h00.49.775,FishGame,2023.1.3,59.85603473686067,
12,stimuli/bead_g.PNG,stimuli/bead_g.PNG,stimuli/bead_y.PNG,stimuli/bead_y.PNG,stimuli/bead_b.PNG,2,3,right,,,,,,,,,,,0,11,11,11,,,,,,,,,,,,,,,,,,,,,54.98961953399703,55.945657026953995,55.945657026953995,55.99562923196936,right,0.5233091869740747,None,1,,,,,,,,,,,,,,,,,,99,2023-07-24_16h00.49.775,FishGame,2023.1.3,59.85603473686067,
13,stimuli/bead_b.PNG,stimuli/bead_g.PNG,stimuli/bead_g.PNG,stimuli/bead_y.PNG,stimuli/bead_y.PNG,2,3,right,,,,,,,,,,,0,12,12,12,,,,,,,,,,,,,,,,,,,,,57.32440343499184,58.28017647698289,58.28017647698289,58.33031629497418,right,0.6937861439655535,None,1,,,,,,,,,,,,,,,,,,99,2023-07-24_16h00.49.775,FishGame,2023.1.3,59.85603473686067,
14,stimuli/bead_g.PNG,stimuli/bead_b.PNG,stimuli/bead_g.PNG,stimuli/bead_g.PNG,stimuli/bead_y.PNG,2,3,right,,,,,,,,,,,0,13,13,13,,,,,,,,,,,,,,,,,,,,,59.82521551800892,60.281451009970624,60.281451009970624,60.33151884598192,right,0.5785213930066675,None,1,,,,,,,,,,,,,,,,,,99,2023-07-24_16h00.49.775,FishGame,2023.1.3,59.85603473686067,
15,stimuli/bead_y.PNG,stimuli/bead_g.PNG,stimuli/bead_b.PNG,stimuli/bead_g.PNG,stimuli/bead_g.PNG,2,3,right,,,,,,,,,,,0,14,14,14,,,,,,,,,,,,,,,,,,,,,61.71097897196887,62.6827597359661,62.6827597359661,62.716172715008724,right,0.42294404603308067,None,1,,,,,,,,,,,,,,,,,,99,2023-07-24_16h00.49.775,FishGame,2023.1.3,59.85603473686067,
16,stimuli/bead_g.PNG,stimuli/bead_y.PNG,stimuli/bead_g.PNG,stimuli/bead_b.PNG,stimuli/bead_g.PNG,2,3,right,,,,,,,,,,,0,15,15,15,,,,,,,,,,,,,,,,,,,,,63.96211148099974,64.41730381496018,64.41730381496018,64.46729190397309,right,0.4738386570243165,None,1,,,,,,,,,,,,,,,,,,99,2023-07-24_16h00.49.775,FishGame,2023.1.3,59.85603473686067,
17,stimuli/bead_g.PNG,stimuli/bead_g.PNG,stimuli/bead_y.PNG,stimuli/bead_g.PNG,stimuli/bead_b.PNG,2,3,right,,,,,,,,,,,0,16,16,16,,,,,,,,,,,,,,,,,,,,,65.74576444696868,66.21824251895305,66.21824251895305,66.25154881598428,right,0.52075753104873,None,1,,,,,,,,,,,,,,,,,,99,2023-07-24_16h00.49.775,FishGame,2023.1.3,59.85603473686067,
18,stimuli/bead_g.PNG,stimuli/bead_g.PNG,stimuli/bead_g.PNG,stimuli/bead_y.PNG,stimuli/bead_g.PNG,2,3,right,,,,,,,,,,,0,17,17,17,,,,,,,,,,,,,,,,,,,,,67.59536309499526,68.55285465996712,68.55285465996712,68.60281532496447,right,0.44638478697743267,None,1,,,,,,,,,,,,,,,,,,99,2023-07-24_16h00.49.775,FishGame,2023.1.3,59.85603473686067,
19,stimuli/bead_g.PNG,stimuli/bead_g.PNG,stimuli/bead_g.PNG,stimuli/bead_g.PNG,stimuli/bead_y.PNG,2,3,right,,,,,,,,,,,0,18,18,18,,,,,,,,,,,,,,,,,,,,,69.84556312195491,70.3037078519701,70.3037078519701,70.37175585399382,right,0.40199347998714074,None,1,,,,,,,,,,,,,,,,,,99,2023-07-24_16h00.49.775,FishGame,2023.1.3,59.85603473686067,
20,stimuli/bead_b.PNG,stimuli/bead_g.PNG,stimuli/bead_g.PNG,stimuli/bead_g.PNG,stimuli/bead_g.PNG,2,3,right,,,,,,,,,,,0,19,19,19,,,,,,,,,,,,,,,,,,,,,71.56476423196727,72.52211664698552,72.52211664698552,72.57220332598081,right,0.3650089140282944,None,1,,,,,,,,,,,,,,,,,,99,2023-07-24_16h00.49.775,FishGame,2023.1.3,59.85603473686067,
,,,,,,,,,,,,,,,,,,,,,,,,,,,,,,,,,,,,,,,,,,,,,,,,,,,73.7074294029735,73.7074294029735,space,3.727236657985486,None,,,,,,,,,,,,,99,2023-07-24_16h00.49.775,FishGame,2023.1.3,59.85603473686067,
1,,,,,,,,,1condition/trialsB2.xlsx,"C2 B2- 10,10: (123),(312)",stimuli/bead_b.PNG,stimuli/blank.JPG,stimuli/blank.JPG,stimuli/blank.JPG,stimuli/blank.JPG,0,1,left,,,,,0,0,0,1,0,0,0,0,,,,,,,,,,,,,,,,,,,,,,,,,,77.5032821779605,78.45835367497057,78.45835367497057,78.50835767597891,left,0.6576684599858709,None,1,1.0,79.12677866197191,,,99,2023-07-24_16h00.49.775,FishGame,2023.1.3,59.85603473686067,
2,,,,,,,,,1condition/trialsB2.xlsx,"C2 B2- 10,10: (123),(312)",stimuli/bead_b.PNG,stimuli/bead_b.PNG,stimuli/blank.JPG,stimuli/blank.JPG,stimuli/blank.JPG,0,1,left,,,,,0,0,0,1,0,1,1,1,,,,,,,,,,,,,,,,,,,,,,,,,,79.6660118830041,81.1264160060091,81.1264160060091,81.17642372800037,left,0.7199766209814698,None,1,1.5,81.86157549999189,,,99,2023-07-24_16h00.49.775,FishGame,2023.1.3,59.85603473686067,
3,,,,,,,,,1condition/trialsB2.xlsx,"C2 B2- 10,10: (123),(312)",stimuli/bead_b.PNG,stimuli/bead_b.PNG,stimuli/bead_b.PNG,stimuli/blank.JPG,stimuli/blank.JPG,0,1,left,,,,,0,0,0,1,0,2,2,2,,,,,,,,,,,,,,,,,,,,,,,,,,82.40252855001017,83.86173797299853,83.86173797299853,83.91151929396437,left,0.46043770003598183,None,1,1.5,84.329625991988,,,99,2023-07-24_16h00.49.775,FishGame,2023.1.3,59.85603473686067,
4,,,,,,,,,1condition/trialsB2.xlsx,"C2 B2- 10,10: (123),(312)",stimuli/bead_b.PNG,stimuli/bead_b.PNG,stimuli/bead_b.PNG,stimuli/bead_b.PNG,stimuli/blank.JPG,0,1,left,,,,,0,0,0,1,0,3,3,3,,,,,,,,,,,,,,,,,,,,,,,,,,84.87263582495507,85.3288774539833,85.3288774539833,85.37880682898685,left,0.7269252919941209,None,1,0.5,86.06400477397256,,,99,2023-07-24_16h00.49.775,FishGame,2023.1.3,59.85603473686067,
5,,,,,,,,,1condition/trialsB2.xlsx,"C2 B2- 10,10: (123),(312)",stimuli/bead_g.PNG,stimuli/bead_b.PNG,stimuli/bead_b.PNG,stimuli/bead_b.PNG,stimuli/bead_b.PNG,0,1,left,,,,,0,0,0,1,0,4,4,4,,,,,,,,,,,,,,,,,,,,,,,,,,86.61006447597174,87.56333485996583,87.56333485996583,87.61342326796148,left,0.3876269689644687,None,1,1.0,87.96487819199683,,,99,2023-07-24_16h00.49.775,FishGame,2023.1.3,59.85603473686067,
6,,,,,,,,,1condition/trialsB2.xlsx,"C2 B2- 10,10: (123),(312)",stimuli/bead_b.PNG,stimuli/bead_g.PNG,stimuli/bead_b.PNG,stimuli/bead_b.PNG,stimuli/bead_b.PNG,0,1,left,,,,,0,0,0,1,0,5,5,5,,,,,,,,,,,,,,,,,,,,,,,,,,88.50937927898485,89.96479792997707,89.96479792997707,90.01472964999266,left,0.4819432779913768,None,1,1.5,90.45025876298314,,,99,2023-07-24_16h00.49.775,FishGame,2023.1.3,59.85603473686067,
7,,,,,,,,,1condition/trialsB2.xlsx,"C2 B2- 10,10: (123),(312)",stimuli/bead_b.PNG,stimuli/bead_b.PNG,stimuli/bead_g.PNG,stimuli/bead_b.PNG,stimuli/bead_b.PNG,0,1,left,,,,,0,0,0,1,0,6,6,6,,,,,,,,,,,,,,,,,,,,,,,,,,90.99483571498422,91.96620992099633,91.96620992099633,91.99927998596104,left,0.36022126901661977,None,1,1.0,92.33412114199018,,,99,2023-07-24_16h00.49.775,FishGame,2023.1.3,59.85603473686067,
8,,,,,,,,,1condition/trialsB2.xlsx,"C2 B2- 10,10: (123),(312)",stimuli/bead_b.PNG,stimuli/bead_b.PNG,stimuli/bead_b.PNG,stimuli/bead_g.PNG,stimuli/bead_b.PNG,0,1,left,,,,,0,0,0,1,0,7,7,7,,,,,,,,,,,,,,,,,,,,,,,,,,92.87923921097536,93.33345464098966,93.33345464098966,93.38323863100959,left,0.5931838459800929,None,1,0.5,93.93512837099843,,,99,2023-07-24_16h00.49.775,FishGame,2023.1.3,59.85603473686067,
9,,,,,,,,,1condition/trialsB2.xlsx,"C2 B2- 10,10: (123),(312)",stimuli/bead_y.PNG,stimuli/bead_b.PNG,stimuli/bead_b.PNG,stimuli/bead_b.PNG,stimuli/bead_g.PNG,0,1,left,,,,,0,0,0,1,0,8,8,8,,,,,,,,,,,,,,,,,,,,,,,,,,94.47903096798109,95.43460407597013,95.43460407597013,95.48457681998843,left,0.5226997860008851,None,1,1.0,95.96944401599467,,,99,2023-07-24_16h00.49.775,FishGame,2023.1.3,59.85603473686067,
10,,,,,,,,,1condition/trialsB2.xlsx,"C2 B2- 10,10: (123),(312)",stimuli/bead_b.PNG,stimuli/bead_y.PNG,stimuli/bead_b.PNG,stimuli/bead_b.PNG,stimuli/bead_b.PNG,0,1,left,,,,,0,0,0,1,0,9,9,9,,,,,,,,,,,,,,,,,,,,,,,,,,96.51487812795676,96.96872306097066,96.96872306097066,97.0188063789974,left,0.818106425984297,None,1,0.5,97.80396432196721,,,99,2023-07-24_16h00.49.775,FishGame,2023.1.3,59.85603473686067,
11,,,,,,,,,1condition/trialsB2.xlsx,"C2 B2- 10,10: (123),(312)",stimuli/bead_y.PNG,stimuli/bead_b.PNG,stimuli/bead_y.PNG,stimuli/bead_b.PNG,stimuli/bead_b.PNG,1,2,up,,,,,0,0,0,1,0,10,10,10,,,,,,,,,,,,,,,,,,,,,,,,,,98.35122443595901,99.30335845699301,99.30335845699301,99.35331206396222,left,0.5397508289897814,None,0,1.0,99.8550994709949,,,99,2023-07-24_16h00.49.775,FishGame,2023.1.3,59.85603473686067,
12,,,,,,,,,1condition/trialsB2.xlsx,"C2 B2- 10,10: (123),(312)",stimuli/bead_y.PNG,stimuli/bead_y.PNG,stimuli/bead_b.PNG,stimuli/bead_y.PNG,stimuli/bead_b.PNG,1,2,up,,,,,0,0,0,1,0,11,11,11,,,,,,,,,,,,,,,,,,,,,,,,,,100.40018406999297,101.8558158359956,101.8558158359956,101.9059399269754,left,0.5143772750161588,None,0,1.5,102.37477171100909,,,99,2023-07-24_16h00.49.775,FishGame,2023.1.3,59.85603473686067,
13,,,,,,,,,1condition/trialsB2.xlsx,"C2 B2- 10,10: (123),(312)",stimuli/bead_b.PNG,stimuli/bead_y.PNG,stimuli/bead_y.PNG,stimuli/bead_b.PNG,stimuli/bead_y.PNG,1,2,up,,,,,0,0,0,1,0,12,12,12,,,,,,,,,,,,,,,,,,,,,,,,,,102.91739834198961,103.38941711798543,103.38941711798543,103.42282573599368,left,0.46647102799033746,None,0,0.5,103.85771646897774,,,99,2023-07-24_16h00.49.775,FishGame,2023.1.3,59.85603473686067,
14,,,,,,,,,1condition/trialsB2.xlsx,"C2 B2- 10,10: (123),(312)",stimuli/bead_y.PNG,stimuli/bead_b.PNG,stimuli/bead_y.PNG,stimuli/bead_y.PNG,stimuli/bead_b.PNG,1,2,up,,,,,0,0,0,1,0,13,13,13,,,,,,,,,,,,,,,,,,,,,,,,,,104.40249751898227,104.87317854800494,104.87317854800494,104.90651041996898,left,0.44190447399159893,None,0,0.5,105.3247668829863,,,99,2023-07-24_16h00.49.775,FishGame,2023.1.3,59.85603473686067,
15,,,,,,,,,1condition/trialsB2.xlsx,"C2 B2- 10,10: (123),(312)",stimuli/bead_y.PNG,stimuli/bead_y.PNG,stimuli/bead_b.PNG,stimuli/bead_y.PNG,stimuli/bead_y.PNG,1,2,up,,,,,0,0,0,1,0,14,14,14,,,,,,,,,,,,,,,,,,,,,,,,,,105.86748422897654,106.32410020497628,106.32410020497628,106.37389135797275,left,0.5379385480191559,None,0,0.5,106.87546417396516,,,99,2023-07-24_16h00.49.775,FishGame,2023.1.3,59.85603473686067,
16,,,,,,,,,1condition/trialsB2.xlsx,"C2 B2- 10,10: (123),(312)",stimuli/bead_g.PNG,stimuli/bead_y.PNG,stimuli/bead_y.PNG,stimuli/bead_b.PNG,stimuli/bead_y.PNG,1,2,up,,,,,0,0,0,1,0,15,15,15,,,,,,,,,,,,,,,,,,,,,,,,,,107.4193318389589,108.87529664597241,108.87529664597241,108.925316517998,left,0.5502988589578308,None,0,1.5,109.42727598099736,,,99,2023-07-24_16h00.49.775,FishGame,2023.1.3,59.85603473686067,
17,,,,,,,,,1condition/trialsB2.xlsx,"C2 B2- 10,10: (123),(312)",stimuli/bead_y.PNG,stimuli/bead_g.PNG,stimuli/bead_y.PNG,stimuli/bead_y.PNG,stimuli/bead_b.PNG,1,2,up,,,,,0,0,0,1,0,16,16,16,,,,,,,,,,,,,,,,,,,,,,,,,,109.97093995398609,111.426772892999,111.426772892999,111.47679092199542,up,1.0709578399546444,None,1,1.5,112.51218707696535,,,99,2023-07-24_16h00.49.775,FishGame,2023.1.3,59.85603473686067,
18,,,,,,,,,1condition/trialsB2.xlsx,"C2 B2- 10,10: (123),(312)",stimuli/bead_y.PNG,stimuli/bead_y.PNG,stimuli/bead_g.PNG,stimuli/bead_y.PNG,stimuli/bead_y.PNG,1,2,up,,,,,0,0,0,1,0,17,17,17,,,,,,,,,,,,,,,,,,,,,,,,,,113.054046011006,113.51134722295683,113.51134722295683,113.56138588895556,up,0.5235950470087118,None,1,0.5,114.04622530197958,,,99,2023-07-24_16h00.49.775,FishGame,2023.1.3,59.85603473686067,
19,,,,,,,,,1condition/trialsB2.xlsx,"C2 B2- 10,10: (123),(312)",stimuli/bead_y.PNG,stimuli/bead_y.PNG,stimuli/bead_y.PNG,stimuli/bead_g.PNG,stimuli/bead_y.PNG,1,2,up,,,,,0,0,0,1,0,18,18,18,,,,,,,,,,,,,,,,,,,,,,,,,,114.58773998898687,116.04605317499954,116.04605317499954,116.09601775900228,up,0.35557112598326057,None,1,1.5,116.41473181900801,,,99,2023-07-24_16h00.49.775,FishGame,2023.1.3,59.85603473686067,
20,,,,,,,,,1condition/trialsB2.xlsx,"C2 B2- 10,10: (123),(312)",stimuli/bead_y.PNG,stimuli/bead_y.PNG,stimuli/bead_y.PNG,stimuli/bead_y.PNG,stimuli/bead_g.PNG,1,2,up,,,,,0,0,0,1,0,19,19,19,,,,,,,,,,,,,,,,,,,,,,,,,,116.9558706349926,117.43022435699822,117.43022435699822,117.46349454496522,up,0.4620966110378504,None,1,0.5,117.89895898499526,,,99,2023-07-24_16h00.49.775,FishGame,2023.1.3,59.85603473686067,
1,,,,,,,,,1condition/trialsB1.xlsx,"C1 B1- 12,8: (213),(231)",stimuli/bead_g.PNG,stimuli/blank.JPG,stimuli/blank.JPG,stimuli/blank.JPG,stimuli/blank.JPG,1,2,up,,,,,0,1,1,0,0,0,0,0,,,,,,,,,,,,,,,,,,,,,,,,,,123.43792543199379,124.90112929599127,124.90112929599127,124.95121562998975,right,0.6404356559505686,None,0,1.5,125.55357302399352,118.43066441995325,,99,2023-07-24_16h00.49.775,FishGame,2023.1.3,59.85603473686067,
2,,,,,,,,,1condition/trialsB1.xlsx,"C1 B1- 12,8: (213),(231)",stimuli/bead_y.PNG,stimuli/bead_g.PNG,stimuli/blank.JPG,stimuli/blank.JPG,stimuli/blank.JPG,1,2,up,,,,,0,1,1,0,0,1,1,1,,,,,,,,,,,,,,,,,,,,,,,,,,126.09173784300219,127.06908590596868,127.06908590596868,127.10236403800081,right,1.1245417119935155,None,0,1.0,128.2045681499876,,,99,2023-07-24_16h00.49.775,FishGame,2023.1.3,59.85603473686067,
3,,,,,,,,,1condition/trialsB1.xlsx,"C1 B1- 12,8: (213),(231)",stimuli/bead_y.PNG,stimuli/bead_y.PNG,stimuli/bead_g.PNG,stimuli/blank.JPG,stimuli/blank.JPG,1,2,up,,,,,0,1,1,0,0,2,2,2,,,,,,,,,,,,,,,,,,,,,,,,,,128.7442760959966,129.22013150301063,129.22013150301063,129.25340549298562,up,0.6639335509971716,None,1,0.5,129.88856299297186,,,99,2023-07-24_16h00.49.775,FishGame,2023.1.3,59.85603473686067,
4,,,,,,,,,1condition/trialsB1.xlsx,"C1 B1- 12,8: (213),(231)",stimuli/bead_y.PNG,stimuli/bead_y.PNG,stimuli/bead_y.PNG,stimuli/bead_g.PNG,stimuli/blank.JPG,1,2,up,,,,,0,1,1,0,0,3,3,3,,,,,,,,,,,,,,,,,,,,,,,,,,130.42392109998036,131.38804321800126,131.38804321800126,131.43854261399247,up,0.46288272296078503,None,1,1.0,131.85732767998707,,,99,2023-07-24_16h00.49.775,FishGame,2023.1.3,59.85603473686067,
5,,,,,,,,,1condition/trialsB1.xlsx,"C1 B1- 12,8: (213),(231)",stimuli/bead_b.PNG,stimuli/bead_y.PNG,stimuli/bead_y.PNG,stimuli/bead_y.PNG,stimuli/bead_g.PNG,1,2,up,,,,,0,1,1,0,0,4,4,4,,,,,,,,,,,,,,,,,,,,,,,,,,132.400477460993,133.3732138099731,133.3732138099731,133.40640358097153,up,1.1267821789951995,None,1,1.0,134.50798350700643,,,99,2023-07-24_16h00.49.775,FishGame,2023.1.3,59.85603473686067,
6,,,,,,,,,1condition/trialsB1.xlsx,"C1 B1- 12,8: (213),(231)",stimuli/bead_y.PNG,stimuli/bead_b.PNG,stimuli/bead_y.PNG,stimuli/bead_y.PNG,stimuli/bead_y.PNG,1,2,up,,,,,0,1,1,0,0,5,5,5,,,,,,,,,,,,,,,,,,,,,,,,,,135.0508927059709,136.50771137495758,136.50771137495758,136.55757218197687,up,0.4120603270130232,None,1,1.5,136.9261032709619,,,99,2023-07-24_16h00.49.775,FishGame,2023.1.3,59.85603473686067,
7,,,,,,,,,1condition/trialsB1.xlsx,"C1 B1- 12,8: (213),(231)",stimuli/bead_y.PNG,stimuli/bead_y.PNG,stimuli/bead_b.PNG,stimuli/bead_y.PNG,stimuli/bead_y.PNG,1,2,up,,,,,0,1,1,0,0,6,6,6,,,,,,,,,,,,,,,,,,,,,,,,,,137.4682801339659,138.42522350297077,138.42522350297077,138.47525739198318,up,0.44865954597480595,None,1,1.0,138.87803206400713,,,99,2023-07-24_16h00.49.775,FishGame,2023.1.3,59.85603473686067,
8,,,,,,,,,1condition/trialsB1.xlsx,"C1 B1- 12,8: (213),(231)",stimuli/bead_y.PNG,stimuli/bead_y.PNG,stimuli/bead_y.PNG,stimuli/bead_b.PNG,stimuli/bead_y.PNG,1,2,up,,,,,0,1,1,0,0,7,7,7,,,,,,,,,,,,,,,,,,,,,,,,,,139.41994150698883,140.39374780497747,140.39374780497747,140.42697429895634,up,0.34444078797241673,None,1,1.0,140.744921126985,,,99,2023-07-24_16h00.49.775,FishGame,2023.1.3,59.85603473686067,
9,,,,,,,,,1condition/trialsB1.xlsx,"C1 B1- 12,8: (213),(231)",stimuli/bead_y.PNG,stimuli/bead_y.PNG,stimuli/bead_y.PNG,stimuli/bead_y.PNG,stimuli/bead_b.PNG,1,2,up,,,,,0,1,1,0,0,8,8,8,,,,,,,,,,,,,,,,,,,,,,,,,,141.28622359596193,141.76046854199376,141.76046854199376,141.79374336497858,up,0.5533259980147704,None,1,0.5,142.32880216196645,,,99,2023-07-24_16h00.49.775,FishGame,2023.1.3,59.85603473686067,
10,,,,,,,,,1condition/trialsB1.xlsx,"C1 B1- 12,8: (213),(231)",stimuli/bead_b.PNG,stimuli/bead_y.PNG,stimuli/bead_y.PNG,stimuli/bead_y.PNG,stimuli/bead_y.PNG,1,2,up,,,,,0,1,1,0,0,9,9,9,,,,,,,,,,,,,,,,,,,,,,,,,,142.87195841397624,144.32862531300634,144.32862531300634,144.37858452898217,up,0.39890926401130855,None,1,1.5,144.73043816298014,,,99,2023-07-24_16h00.49.775,FishGame,2023.1.3,59.85603473686067,
11,,,,,,,,,1condition/trialsB1.xlsx,"C1 B1- 12,8: (213),(231)",stimuli/bead_y.PNG,stimuli/bead_b.PNG,stimuli/bead_y.PNG,stimuli/bead_y.PNG,stimuli/bead_y.PNG,1,2,up,,,,,0,1,1,0,0,10,10,10,,,,,,,,,,,,,,,,,,,,,,,,,,145.27394325798377,146.2296446719556,146.2296446719556,146.27960548299598,up,0.5033836190123111,None,1,1.0,146.74814816296566,,,99,2023-07-24_16h00.49.775,FishGame,2023.1.3,59.85603473686067,
12,,,,,,,,,1condition/trialsB1.xlsx,"C1 B1- 12,8: (213),(231)",stimuli/bead_y.PNG,stimuli/bead_y.PNG,stimuli/bead_b.PNG,stimuli/bead_y.PNG,stimuli/bead_y.PNG,1,2,up,,,,,0,1,1,0,0,11,11,11,,,,,,,,,,,,,,,,,,,,,,,,,,147.299116485985,147.7472083689645,147.7472083689645,147.81394074700074,up,0.5125699220225215,None,1,0.5,148.26591645099688,,,99,2023-07-24_16h00.49.775,FishGame,2023.1.3,59.85603473686067,
13,,,,,,,,,1condition/trialsB1.xlsx,"C1 B1- 12,8: (213),(231)",stimuli/bead_g.PNG,stimuli/bead_y.PNG,stimuli/bead_y.PNG,stimuli/bead_b.PNG,stimuli/bead_y.PNG,2,3,right,,,,,0,1,1,0,0,12,12,12,,,,,,,,,,,,,,,,,,,,,,,,,,148.80919293896295,149.76504537300207,149.76504537300207,149.81507288798457,up,0.383834162959829,None,0,1.0,150.15040437696734,,,99,2023-07-24_16h00.49.775,FishGame,2023.1.3,59.85603473686067,
14,,,,,,,,,1condition/trialsB1.xlsx,"C1 B1- 12,8: (213),(231)",stimuli/bead_g.PNG,stimuli/bead_g.PNG,stimuli/bead_y.PNG,stimuli/bead_y.PNG,stimuli/bead_b.PNG,2,3,right,,,,,0,1,1,0,0,13,13,13,,,,,,,,,,,,,,,,,,,,,,,,,,150.6929796320037,152.14981334999902,152.14981334999902,152.19973997800844,right,0.4013445950113237,None,1,1.5,152.56805732595967,,,99,2023-07-24_16h00.49.775,FishGame,2023.1.3,59.85603473686067,
15,,,,,,,,,1condition/trialsB1.xlsx,"C1 B1- 12,8: (213),(231)",stimuli/bead_y.PNG,stimuli/bead_g.PNG,stimuli/bead_g.PNG,stimuli/bead_y.PNG,stimuli/bead_y.PNG,2,3,right,,,,,0,1,1,0,0,14,14,14,,,,,,,,,,,,,,,,,,,,,,,,,,153.11007687996607,153.5672714979737,153.5672714979737,153.61726472497685,right,0.5802052390063182,None,1,0.5,154.1525933049852,,,99,2023-07-24_16h00.49.775,FishGame,2023.1.3,59.85603473686067,
16,,,,,,,,,1condition/trialsB1.xlsx,"C1 B1- 12,8: (213),(231)",stimuli/bead_g.PNG,stimuli/bead_y.PNG,stimuli/bead_g.PNG,stimuli/bead_g.PNG,stimuli/bead_y.PNG,2,3,right,,,,,0,1,1,0,0,15,15,15,,,,,,,,,,,,,,,,,,,,,,,,,,154.69659436895745,156.15204843395622,156.15204843395622,156.20202275097836,right,0.48206122498959303,None,1,1.5,156.63753260299563,,,99,2023-07-24_16h00.49.775,FishGame,2023.1.3,59.85603473686067,
17,,,,,,,,,1condition/trialsB1.xlsx,"C1 B1- 12,8: (213),(231)",stimuli/bead_g.PNG,stimuli/bead_g.PNG,stimuli/bead_y.PNG,stimuli/bead_g.PNG,stimuli/bead_g.PNG,2,3,right,,,,,0,1,1,0,0,16,16,16,,,,,,,,,,,,,,,,,,,,,,,,,,157.1794421779923,158.15316071198322,158.15316071198322,158.18651748995762,right,0.40977980999741703,None,1,1.0,158.57133616297506,,,99,2023-07-24_16h00.49.775,FishGame,2023.1.3,59.85603473686067,
18,,,,,,,,,1condition/trialsB1.xlsx,"C1 B1- 12,8: (213),(231)",stimuli/bead_g.PNG,stimuli/bead_g.PNG,stimuli/bead_g.PNG,stimuli/bead_y.PNG,stimuli/bead_g.PNG,2,3,right,,,,,0,1,1,0,0,17,17,17,,,,,,,,,,,,,,,,,,,,,,,,,,159.11277992196847,160.07083772995975,160.07083772995975,160.12094438797794,right,0.3340992900193669,None,1,1.0,160.4072368159541,,,99,2023-07-24_16h00.49.775,FishGame,2023.1.3,59.85603473686067,
19,,,,,,,,,1condition/trialsB1.xlsx,"C1 B1- 12,8: (213),(231)",stimuli/bead_b.PNG,stimuli/bead_g.PNG,stimuli/bead_g.PNG,stimuli/bead_g.PNG,stimuli/bead_y.PNG,2,3,right,,,,,0,1,1,0,0,18,18,18,,,,,,,,,,,,,,,,,,,,,,,,,,160.94913020997774,161.42200499097817,161.42200499097817,161.45560860499972,right,0.6260111129959114,None,1,0.5,162.05688181798905,,,99,2023-07-24_16h00.49.775,FishGame,2023.1.3,59.85603473686067,
20,,,,,,,,,1condition/trialsB1.xlsx,"C1 B1- 12,8: (213),(231)",stimuli/bead_g.PNG,stimuli/bead_b.PNG,stimuli/bead_g.PNG,stimuli/bead_g.PNG,stimuli/bead_g.PNG,2,3,right,,,,,0,1,1,0,0,19,19,19,,,,,,,,,,,,,,,,,,,,,,,,,,162.6003321199678,163.0558248339803,163.0558248339803,163.105825644976,right,1.3769651510519907,None,1,0.5,164.44127859699074,,,99,2023-07-24_16h00.49.775,FishGame,2023.1.3,59.85603473686067,
1,,,,,,,,,1condition/trialsB5.xlsx,"C5 B5- 8,12: (132),(321)",stimuli/bead_b.PNG,stimuli/blank.JPG,stimuli/blank.JPG,stimuli/blank.JPG,stimuli/blank.JPG,0,1,left,,,,,0,2,2,4,0,0,0,0,,,,,,,,,,,,,,,,,,,,,,,,,,169.9824658689904,170.44324436900206,170.44324436900206,170.4932790210005,left,0.6799581499653868,None,1,0.5,171.12889683496905,164.97373907500878,,99,2023-07-24_16h00.49.775,FishGame,2023.1.3,59.85603473686067,
2,,,,,,,,,1condition/trialsB5.xlsx,"C5 B5- 8,12: (132),(321)",stimuli/bead_g.PNG,stimuli/bead_b.PNG,stimuli/blank.JPG,stimuli/blank.JPG,stimuli/blank.JPG,0,1,left,,,,,0,2,2,4,0,1,1,1,,,,,,,,,,,,,,,,,,,,,,,,,,171.67604186898097,172.14418461499736,172.14418461499736,172.17761322797742,right,0.7542340100044385,None,0,0.5,172.91283735696925,,,99,2023-07-24_16h00.49.775,FishGame,2023.1.3,59.85603473686067,
3,,,,,,,,,1condition/trialsB5.xlsx,"C5 B5- 8,12: (132),(321)",stimuli/bead_b.PNG,stimuli/bead_g.PNG,stimuli/bead_b.PNG,stimuli/blank.JPG,stimuli/blank.JPG,0,1,left,,,,,0,2,2,4,0,2,2,2,,,,,,,,,,,,,,,,,,,,,,,,,,173.45466199400835,174.41222396999365,174.41222396999365,174.46216076100245,left,0.5607050859834999,None,1,1.0,174.9803820969537,,,99,2023-07-24_16h00.49.775,FishGame,2023.1.3,59.85603473686067,
4,,,,,,,,,1condition/trialsB5.xlsx,"C5 B5- 8,12: (132),(321)",stimuli/bead_y.PNG,stimuli/bead_b.PNG,stimuli/bead_g.PNG,stimuli/bead_b.PNG,stimuli/blank.JPG,0,1,left,,,,,0,2,2,4,0,3,3,3,,,,,,,,,,,,,,,,,,,,,,,,,,175.52424908598186,175.9797074960079,175.9797074960079,176.0299489669851,left,1.208481352950912,None,1,0.5,177.1986548259738,,,99,2023-07-24_16h00.49.775,FishGame,2023.1.3,59.85603473686067,
5,,,,,,,,,1condition/trialsB5.xlsx,"C5 B5- 8,12: (132),(321)",stimuli/bead_b.PNG,stimuli/bead_y.PNG,stimuli/bead_b.PNG,stimuli/bead_g.PNG,stimuli/bead_b.PNG,0,1,left,,,,,0,2,2,4,0,4,4,4,,,,,,,,,,,,,,,,,,,,,,,,,,177.74414225498913,178.19784738396993,178.19784738396993,178.24771079898346,left,0.5689069789950736,None,1,0.5,178.78277640597662,,,99,2023-07-24_16h00.49.775,FishGame,2023.1.3,59.85603473686067,
6,,,,,,,,,1condition/trialsB5.xlsx,"C5 B5- 8,12: (132),(321)",stimuli/bead_b.PNG,stimuli/bead_b.PNG,stimuli/bead_y.PNG,stimuli/bead_b.PNG,stimuli/bead_g.PNG,0,1,left,,,,,0,2,2,4,0,5,5,5,,,,,,,,,,,,,,,,,,,,,,,,,,179.32788388896734,180.28218063799432,180.28218063799432,180.33219131000806,left,0.44563786895014346,None,1,1.0,180.7341812539962,,,99,2023-07-24_16h00.49.775,FishGame,2023.1.3,59.85603473686067,
7,,,,,,,,,1condition/trialsB5.xlsx,"C5 B5- 8,12: (132),(321)",stimuli/bead_y.PNG,stimuli/bead_b.PNG,stimuli/bead_b.PNG,stimuli/bead_y.PNG,stimuli/bead_b.PNG,0,1,left,,,,,0,2,2,4,0,6,6,6,,,,,,,,,,,,,,,,,,,,,,,,,,181.27906613395317,182.73360668099485,182.73360668099485,182.78364625398535,left,0.5446135509992018,None,1,1.5,183.28595601895358,,,99,2023-07-24_16h00.49.775,FishGame,2023.1.3,59.85603473686067,
8,,,,,,,,,1condition/trialsB5.xlsx,"C5 B5- 8,12: (132),(321)",stimuli/bead_b.PNG,stimuli/bead_y.PNG,stimuli/bead_b.PNG,stimuli/bead_b.PNG,stimuli/bead_y.PNG,0,1,left,,,,,0,2,2,4,0,7,7,7,,,,,,,,,,,,,,,,,,,,,,,,,,183.83052500797203,185.2851809039712,185.2851809039712,185.33512751600938,left,0.38847026298753917,None,1,1.5,185.68694767996203,,,99,2023-07-24_16h00.49.775,FishGame,2023.1.3,59.85603473686067,
9,,,,,,,,,1condition/trialsB5.xlsx,"C5 B5- 8,12: (132),(321)",stimuli/bead_g.PNG,stimuli/bead_b.PNG,stimuli/bead_y.PNG,stimuli/bead_b.PNG,stimuli/bead_b.PNG,2,3,right,,,,,0,2,2,4,0,8,8,8,,,,,,,,,,,,,,,,,,,,,,,,,,186.23168398800772,187.6864419959602,187.6864419959602,187.73640353698283,left,0.49315061001107097,None,0,1.5,188.18795308895642,,,99,2023-07-24_16h00.49.775,FishGame,2023.1.3,59.85603473686067,
10,,,,,,,,,1condition/trialsB5.xlsx,"C5 B5- 8,12: (132),(321)",stimuli/bead_g.PNG,stimuli/bead_g.PNG,stimuli/bead_b.PNG,stimuli/bead_y.PNG,stimuli/bead_b.PNG,2,3,right,,,,,0,2,2,4,0,9,9,9,,,,,,,,,,,,,,,,,,,,,,,,,,188.73076420999132,190.18830796697875,190.18830796697875,190.23827547597466,right,0.5258763659512624,None,1,1.5,190.723337480973,,,99,2023-07-24_16h00.49.775,FishGame,2023.1.3,59.85603473686067,
11,,,,,,,,,1condition/trialsB5.xlsx,"C5 B5- 8,12: (132),(321)",stimuli/bead_y.PNG,stimuli/bead_g.PNG,stimuli/bead_g.PNG,stimuli/bead_b.PNG,stimuli/bead_y.PNG,2,3,right,,,,,0,2,2,4,0,10,10,10,,,,,,,,,,,,,,,,,,,,,,,,,,191.26717463700334,192.23883002100047,192.23883002100047,192.27226127200993,right,0.5298148029833101,None,1,1.0,192.77422896097414,,,99,2023-07-24_16h00.49.775,FishGame,2023.1.3,59.85603473686067,
12,,,,,,,,,1condition/trialsB5.xlsx,"C5 B5- 8,12: (132),(321)",stimuli/bead_g.PNG,stimuli/bead_y.PNG,stimuli/bead_g.PNG,stimuli/bead_g.PNG,stimuli/bead_b.PNG,2,3,right,,,,,0,2,2,4,0,11,11,11,,,,,,,,,,,,,,,,,,,,,,,,,,193.31716005899943,194.77359432296362,194.77359432296362,194.8239670099574,right,0.3424082410056144,None,1,1.5,195.12503275397466,,,99,2023-07-24_16h00.49.775,FishGame,2023.1.3,59.85603473686067,
13,,,,,,,,,1condition/trialsB5.xlsx,"C5 B5- 8,12: (132),(321)",stimuli/bead_g.PNG,stimuli/bead_g.PNG,stimuli/bead_y.PNG,stimuli/bead_g.PNG,stimuli/bead_g.PNG,2,3,right,,,,,0,2,2,4,0,12,12,12,,,,,,,,,,,,,,,,,,,,,,,,,,195.66687554999953,197.12492900399957,197.12492900399957,197.1750981779769,right,0.2500783490249887,None,1,1.5,197.40205546695506,,,99,2023-07-24_16h00.49.775,FishGame,2023.1.3,59.85603473686067,
14,,,,,,,,,1condition/trialsB5.xlsx,"C5 B5- 8,12: (132),(321)",stimuli/bead_g.PNG,stimuli/bead_g.PNG,stimuli/bead_g.PNG,stimuli/bead_y.PNG,stimuli/bead_g.PNG,2,3,right,,,,,0,2,2,4,0,13,13,13,,,,,,,,,,,,,,,,,,,,,,,,,,197.93443408497842,198.40895046596415,198.40895046596415,198.4423988769995,right,0.8413750560139306,None,1,0.5,199.2608205099823,,,99,2023-07-24_16h00.49.775,FishGame,2023.1.3,59.85603473686067,
15,,,,,,,,,1condition/trialsB5.xlsx,"C5 B5- 8,12: (132),(321)",stimuli/bead_g.PNG,stimuli/bead_g.PNG,stimuli/bead_g.PNG,stimuli/bead_g.PNG,stimuli/bead_y.PNG,2,3,right,,,,,0,2,2,4,0,14,14,14,,,,,,,,,,,,,,,,,,,,,,,,,,199.80142029898707,200.26009743096074,200.26009743096074,200.30996748799225,right,0.7566038789809681,None,1,0.5,201.0285040870076,,,99,2023-07-24_16h00.49.775,FishGame,2023.1.3,59.85603473686067,
16,,,,,,,,,1condition/trialsB5.xlsx,"C5 B5- 8,12: (132),(321)",stimuli/bead_b.PNG,stimuli/bead_g.PNG,stimuli/bead_g.PNG,stimuli/bead_g.PNG,stimuli/bead_g.PNG,2,3,right,,,,,0,2,2,4,0,15,15,15,,,,,,,,,,,,,,,,,,,,,,,,,,201.57090986595722,203.028333225986,203.028333225986,203.07825838500867,right,0.5008216130081564,None,1,1.5,203.54643319896422,,,99,2023-07-24_16h00.49.775,FishGame,2023.1.3,59.85603473686067,
17,,,,,,,,,1condition/trialsB5.xlsx,"C5 B5- 8,12: (132),(321)",stimuli/bead_g.PNG,stimuli/bead_b.PNG,stimuli/bead_g.PNG,stimuli/bead_g.PNG,stimuli/bead_g.PNG,2,3,right,,,,,0,2,2,4,0,16,16,16,,,,,,,,,,,,,,,,,,,,,,,,,,204.08903285098495,204.545801249973,204.545801249973,204.59583019296406,right,2.238862452970352,None,1,0.5,206.79848146100994,,,99,2023-07-24_16h00.49.775,FishGame,2023.1.3,59.85603473686067,
18,,,,,,,,,1condition/trialsB5.xlsx,"C5 B5- 8,12: (132),(321)",stimuli/bead_b.PNG,stimuli/bead_g.PNG,stimuli/bead_b.PNG,stimuli/bead_g.PNG,stimuli/bead_g.PNG,2,3,right,,,,,0,2,2,4,0,17,17,17,,,,,,,,,,,,,,,,,,,,,,,,,,207.34332073596306,208.29789391800296,208.29789391800296,208.34808244596934,right,0.43471107800723985,None,1,1.0,208.74955240398413,,,99,2023-07-24_16h00.49.775,FishGame,2023.1.3,59.85603473686067,
19,,,,,,,,,1condition/trialsB5.xlsx,"C5 B5- 8,12: (132),(321)",stimuli/bead_g.PNG,stimuli/bead_b.PNG,stimuli/bead_g.PNG,stimuli/bead_b.PNG,stimuli/bead_g.PNG,2,3,right,,,,,0,2,2,4,0,18,18,18,,,,,,,,,,,,,,,,,,,,,,,,,,209.29362941900035,209.74884900701,209.74884900701,209.7989068129682,right,0.860870738979429,None,1,0.5,210.6186759499833,,,99,2023-07-24_16h00.49.775,FishGame,2023.1.3,59.85603473686067,
20,,,,,,,,,1condition/trialsB5.xlsx,"C5 B5- 8,12: (132),(321)",stimuli/bead_g.PNG,stimuli/bead_g.PNG,stimuli/bead_b.PNG,stimuli/bead_g.PNG,stimuli/bead_b.PNG,2,3,right,,,,,0,2,2,4,0,19,19,19,,,,,,,,,,,,,,,,,,,,,,,,,,211.16284800000722,212.13348546496127,212.13348546496127,212.16677002195502,right,0.3975957930088043,None,1,1.0,212.53532009897754,,,99,2023-07-24_16h00.49.775,FishGame,2023.1.3,59.85603473686067,
1,,,,,,,,,1condition/trialsB6.xlsx,"C6 B6- 7,13: (312),(123)",stimuli/bead_y.PNG,stimuli/blank.JPG,stimuli/blank.JPG,stimuli/blank.JPG,stimuli/blank.JPG,1,2,up,,,,,0,3,3,5,0,0,0,0,,,,,,,,,,,,,,,,,,,,,,,,,,218.0764214170049,218.53705170797184,218.53705170797184,218.58696001197677,up,0.9005703079747036,None,1,0.5,219.4393352129846,213.0673196229618,,99,2023-07-24_16h00.49.775,FishGame,2023.1.3,59.85603473686067,
2,,,,,,,,,1condition/trialsB6.xlsx,"C6 B6- 7,13: (312),(123)",stimuli/bead_y.PNG,stimuli/bead_y.PNG,stimuli/blank.JPG,stimuli/blank.JPG,stimuli/blank.JPG,1,2,up,,,,,0,3,3,5,0,1,1,1,,,,,,,,,,,,,,,,,,,,,,,,,,219.9765112279565,220.9388229830074,220.9388229830074,220.9885469370056,up,0.4957160840276629,None,1,1.0,221.44092356000328,,,99,2023-07-24_16h00.49.775,FishGame,2023.1.3,59.85603473686067,
3,,,,,,,,,1condition/trialsB6.xlsx,"C6 B6- 7,13: (312),(123)",stimuli/bead_g.PNG,stimuli/bead_y.PNG,stimuli/bead_y.PNG,stimuli/blank.JPG,stimuli/blank.JPG,1,2,up,,,,,0,3,3,5,0,2,2,2,,,,,,,,,,,,,,,,,,,,,,,,,,221.980852779001,222.4562897979631,222.4562897979631,222.4895932219806,up,0.6726457799668424,None,1,0.5,223.14080225297948,,,99,2023-07-24_16h00.49.775,FishGame,2023.1.3,59.85603473686067,
4,,,,,,,,,1condition/trialsB6.xlsx,"C6 B6- 7,13: (312),(123)",stimuli/bead_g.PNG,stimuli/bead_g.PNG,stimuli/bead_y.PNG,stimuli/bead_y.PNG,stimuli/blank.JPG,1,2,up,,,,,0,3,3,5,0,3,3,3,,,,,,,,,,,,,,,,,,,,,,,,,,223.68150342896115,224.14011722395662,224.14011722395662,224.1901981550036,up,0.5688252689433284,None,1,0.5,224.7251100099529,,,99,2023-07-24_16h00.49.775,FishGame,2023.1.3,59.85603473686067,
5,,,,,,,,,1condition/trialsB6.xlsx,"C6 B6- 7,13: (312),(123)",stimuli/bead_y.PNG,stimuli/bead_g.PNG,stimuli/bead_g.PNG,stimuli/bead_y.PNG,stimuli/bead_y.PNG,1,2,up,,,,,0,3,3,5,0,4,4,4,,,,,,,,,,,,,,,,,,,,,,,,,,225.2677146049682,225.72439483297057,225.72439483297057,225.7743773710099,up,0.5696549010463059,None,1,0.5,226.30917682900326,,,99,2023-07-24_16h00.49.775,FishGame,2023.1.3,59.85603473686067,
6,,,,,,,,,1condition/trialsB6.xlsx,"C6 B6- 7,13: (312),(123)",stimuli/bead_y.PNG,stimuli/bead_y.PNG,stimuli/bead_g.PNG,stimuli/bead_g.PNG,stimuli/bead_y.PNG,1,2,up,,,,,0,3,3,5,0,5,5,5,,,,,,,,,,,,,,,,,,,,,,,,,,226.85082813695772,228.30911854997976,228.30911854997976,228.35910121398047,up,0.47204090299783275,None,1,1.5,228.79390932497336,,,99,2023-07-24_16h00.49.775,FishGame,2023.1.3,59.85603473686067,
7,,,,,,,,,1condition/trialsB6.xlsx,"C6 B6- 7,13: (312),(123)",stimuli/bead_y.PNG,stimuli/bead_y.PNG,stimuli/bead_y.PNG,stimuli/bead_g.PNG,stimuli/bead_g.PNG,1,2,up,,,,,0,3,3,5,0,6,6,6,,,,,,,,,,,,,,,,,,,,,,,,,,229.3353501079837,230.29353114799596,230.29353114799596,230.34356547897914,up,0.4876684420160018,None,1,1.0,230.79525480000302,,,99,2023-07-24_16h00.49.775,FishGame,2023.1.3,59.85603473686067,
8,,,,,,,,,1condition/trialsB6.xlsx,"C6 B6- 7,13: (312),(123)",stimuli/bead_b.PNG,stimuli/bead_y.PNG,stimuli/bead_y.PNG,stimuli/bead_y.PNG,stimuli/bead_g.PNG,0,1,left,,,,,0,3,3,5,0,7,7,7,,,,,,,,,,,,,,,,,,,,,,,,,,231.3377545789699,231.7943476929795,231.7943476929795,231.8444989589625,up,0.5913956279982813,None,0,0.5,232.39617274800548,,,99,2023-07-24_16h00.49.775,FishGame,2023.1.3,59.85603473686067,
9,,,,,,,,,1condition/trialsB6.xlsx,"C6 B6- 7,13: (312),(123)",stimuli/bead_b.PNG,stimuli/bead_b.PNG,stimuli/bead_y.PNG,stimuli/bead_y.PNG,stimuli/bead_y.PNG,0,1,left,,,,,0,3,3,5,0,8,8,8,,,,,,,,,,,,,,,,,,,,,,,,,,232.93869767099386,234.39592461200664,234.39592461200664,234.4458905099891,up,0.4390497279819101,None,0,1.5,234.8475113249733,,,99,2023-07-24_16h00.49.775,FishGame,2023.1.3,59.85603473686067,
10,,,,,,,,,1condition/trialsB6.xlsx,"C6 B6- 7,13: (312),(123)",stimuli/bead_b.PNG,stimuli/bead_b.PNG,stimuli/bead_b.PNG,stimuli/bead_y.PNG,stimuli/bead_y.PNG,0,1,left,,,,,0,3,3,5,0,9,9,9,,,,,,,,,,,,,,,,,,,,,,,,,,235.39125509600854,235.84682351897936,235.84682351897936,235.89674453099724,left,0.4613569710054435,None,1,0.5,236.3157770030084,,,99,2023-07-24_16h00.49.775,FishGame,2023.1.3,59.85603473686067,
11,,,,,,,,,1condition/trialsB6.xlsx,"C6 B6- 7,13: (312),(123)",stimuli/bead_g.PNG,stimuli/bead_b.PNG,stimuli/bead_b.PNG,stimuli/bead_b.PNG,stimuli/bead_y.PNG,0,1,left,,,,,0,3,3,5,0,10,10,10,,,,,,,,,,,,,,,,,,,,,,,,,,236.86012648895849,238.3150138219935,238.3150138219935,238.36476955696708,left,0.5066171070211567,None,1,1.5,238.8330472749658,,,99,2023-07-24_16h00.49.775,FishGame,2023.1.3,59.85603473686067,
12,,,,,,,,,1condition/trialsB6.xlsx,"C6 B6- 7,13: (312),(123)",stimuli/bead_b.PNG,stimuli/bead_g.PNG,stimuli/bead_b.PNG,stimuli/bead_b.PNG,stimuli/bead_b.PNG,0,1,left,,,,,0,3,3,5,0,11,11,11,,,,,,,,,,,,,,,,,,,,,,,,,,239.38039815600496,239.8324757340015,239.8324757340015,239.88237070199102,left,0.5561735730152577,None,1,0.5,240.40070564398775,,,99,2023-07-24_16h00.49.775,FishGame,2023.1.3,59.85603473686067,
13,,,,,,,,,1condition/trialsB6.xlsx,"C6 B6- 7,13: (312),(123)",stimuli/bead_y.PNG,stimuli/bead_b.PNG,stimuli/bead_g.PNG,stimuli/bead_b.PNG,stimuli/bead_b.PNG,0,1,left,,,,,0,3,3,5,0,12,12,12,,,,,,,,,,,,,,,,,,,,,,,,,,240.9451778929797,242.40047922398662,242.40047922398662,242.4505640270072,left,0.4007890080101788,None,1,1.5,242.8186817819951,,,99,2023-07-24_16h00.49.775,FishGame,2023.1.3,59.85603473686067,
14,,,,,,,,,1condition/trialsB6.xlsx,"C6 B6- 7,13: (312),(123)",stimuli/bead_b.PNG,stimuli/bead_y.PNG,stimuli/bead_b.PNG,stimuli/bead_g.PNG,stimuli/bead_b.PNG,0,1,left,,,,,0,3,3,5,0,13,13,13,,,,,,,,,,,,,,,,,,,,,,,,,,243.3648877289961,243.8179078969988,243.8179078969988,243.86827129800804,left,0.48406036297092214,None,1,0.5,244.3034699249547,,,99,2023-07-24_16h00.49.775,FishGame,2023.1.3,59.85603473686067,
15,,,,,,,,,1condition/trialsB6.xlsx,"C6 B6- 7,13: (312),(123)",stimuli/bead_b.PNG,stimuli/bead_b.PNG,stimuli/bead_y.PNG,stimuli/bead_b.PNG,stimuli/bead_g.PNG,0,1,left,,,,,0,3,3,5,0,14,14,14,,,,,,,,,,,,,,,,,,,,,,,,,,244.84738617599942,245.81920572399395,245.81920572399395,245.85249496699544,left,0.3089053939911537,None,1,1.0,246.13725894095842,,,99,2023-07-24_16h00.49.775,FishGame,2023.1.3,59.85603473686067,
16,,,,,,,,,1condition/trialsB6.xlsx,"C6 B6- 7,13: (312),(123)",stimuli/bead_b.PNG,stimuli/bead_b.PNG,stimuli/bead_b.PNG,stimuli/bead_y.PNG,stimuli/bead_b.PNG,0,1,left,,,,,0,3,3,5,0,15,15,15,,,,,,,,,,,,,,,,,,,,,,,,,,246.68145118298708,247.15298157697544,247.15298157697544,247.18634224595735,left,1.21011903998442,None,1,0.5,248.37148436898133,,,99,2023-07-24_16h00.49.775,FishGame,2023.1.3,59.85603473686067,
17,,,,,,,,,1condition/trialsB6.xlsx,"C6 B6- 7,13: (312),(123)",stimuli/bead_g.PNG,stimuli/bead_b.PNG,stimuli/bead_b.PNG,stimuli/bead_b.PNG,stimuli/bead_y.PNG,0,1,left,,,,,0,3,3,5,0,16,16,16,,,,,,,,,,,,,,,,,,,,,,,,,,248.90012600895716,249.87121578498045,249.87121578498045,249.90456627099775,left,0.5032312310067937,None,1,1.0,250.39636208000593,,,99,2023-07-24_16h00.49.775,FishGame,2023.1.3,59.85603473686067,
18,,,,,,,,,1condition/trialsB6.xlsx,"C6 B6- 7,13: (312),(123)",stimuli/bead_b.PNG,stimuli/bead_g.PNG,stimuli/bead_b.PNG,stimuli/bead_b.PNG,stimuli/bead_b.PNG,0,1,left,,,,,0,3,3,5,0,17,17,17,,,,,,,,,,,,,,,,,,,,,,,,,,250.93492862198036,251.90604659495875,251.90604659495875,251.9393843159778,left,0.5321857969975099,None,1,1.0,252.44121738296235,,,99,2023-07-24_16h00.49.775,FishGame,2023.1.3,59.85603473686067,
19,,,,,,,,,1condition/trialsB6.xlsx,"C6 B6- 7,13: (312),(123)",stimuli/bead_b.PNG,stimuli/bead_b.PNG,stimuli/bead_g.PNG,stimuli/bead_b.PNG,stimuli/bead_b.PNG,0,1,left,,,,,0,3,3,5,0,18,18,18,,,,,,,,,,,,,,,,,,,,,,,,,,252.98477739898954,253.45652131095994,253.45652131095994,253.48982782196254,left,0.5374012070242316,None,1,0.5,254.00809880299494,,,99,2023-07-24_16h00.49.775,FishGame,2023.1.3,59.85603473686067,
20,,,,,,,,,1condition/trialsB6.xlsx,"C6 B6- 7,13: (312),(123)",stimuli/bead_b.PNG,stimuli/bead_b.PNG,stimuli/bead_b.PNG,stimuli/bead_g.PNG,stimuli/bead_b.PNG,0,1,left,,,,,0,3,3,5,0,19,19,19,,,,,,,,,,,,,,,,,,,,,,,,,,254.55229941697326,255.00742679199902,255.00742679199902,255.0574542369577,left,0.6168759639840573,None,1,0.5,255.62592169299023,,,99,2023-07-24_16h00.49.775,FishGame,2023.1.3,59.85603473686067,
1,,,,,,,,,1condition/trialsB4.xlsx,"C4 B4- 7,7,6: (231),(213),(132)",stimuli/bead_y.PNG,stimuli/blank.JPG,stimuli/blank.JPG,stimuli/blank.JPG,stimuli/blank.JPG,2,3,right,,,,,0,4,4,3,0,0,0,0,,,,,,,,,,,,,,,,,,,,,,,,,,261.1657478690031,262.628462062974,262.628462062974,262.69568281195825,up,0.7576525959884748,None,0,1.5,263.3970271599828,256.1580883029965,,99,2023-07-24_16h00.49.775,FishGame,2023.1.3,59.85603473686067,
2,,,,,,,,,1condition/trialsB4.xlsx,"C4 B4- 7,7,6: (231),(213),(132)",stimuli/bead_g.PNG,stimuli/bead_y.PNG,stimuli/blank.JPG,stimuli/blank.JPG,stimuli/blank.JPG,2,3,right,,,,,0,4,4,3,0,1,1,1,,,,,,,,,,,,,,,,,,,,,,,,,,263.9376636579982,264.3962161859963,264.3962161859963,264.44599197100615,up,0.8681566179729998,None,0,0.5,265.2811550209881,,,99,2023-07-24_16h00.49.775,FishGame,2023.1.3,59.85603473686067,
3,,,,,,,,,1condition/trialsB4.xlsx,"C4 B4- 7,7,6: (231),(213),(132)",stimuli/bead_g.PNG,stimuli/bead_g.PNG,stimuli/bead_y.PNG,stimuli/blank.JPG,stimuli/blank.JPG,2,3,right,,,,,0,4,4,3,0,2,2,2,,,,,,,,,,,,,,,,,,,,,,,,,,265.8213611249812,266.7808238269645,266.7808238269645,266.8309715439682,right,0.5490684459800832,None,1,1.0,267.3334218490054,,,99,2023-07-24_16h00.49.775,FishGame,2023.1.3,59.85603473686067,
4,,,,,,,,,1condition/trialsB4.xlsx,"C4 B4- 7,7,6: (231),(213),(132)",stimuli/bead_g.PNG,stimuli/bead_g.PNG,stimuli/bead_g.PNG,stimuli/bead_y.PNG,stimuli/blank.JPG,2,3,right,,,,,0,4,4,3,0,3,3,3,,,,,,,,,,,,,,,,,,,,,,,,,,267.873678768985,269.348999275011,269.348999275011,269.3822588920011,right,0.306619671988301,None,1,1.5,269.6670577809564,,,99,2023-07-24_16h00.49.775,FishGame,2023.1.3,59.85603473686067,
5,,,,,,,,,1condition/trialsB4.xlsx,"C4 B4- 7,7,6: (231),(213),(132)",stimuli/bead_b.PNG,stimuli/bead_g.PNG,stimuli/bead_g.PNG,stimuli/bead_g.PNG,stimuli/bead_y.PNG,2,3,right,,,,,0,4,4,3,0,4,4,4,,,,,,,,,,,,,,,,,,,,,,,,,,270.2105239109951,270.666325536964,270.666325536964,270.7163748439634,right,0.7157646109699272,None,1,0.5,271.38539227098227,,,99,2023-07-24_16h00.49.775,FishGame,2023.1.3,59.85603473686067,
6,,,,,,,,,1condition/trialsB4.xlsx,"C4 B4- 7,7,6: (231),(213),(132)",stimuli/bead_g.PNG,stimuli/bead_b.PNG,stimuli/bead_g.PNG,stimuli/bead_g.PNG,stimuli/bead_g.PNG,2,3,right,,,,,0,4,4,3,0,5,5,5,,,,,,,,,,,,,,,,,,,,,,,,,,271.92802442697575,272.900965481007,272.900965481007,272.93430015596095,right,0.4362782369717024,None,1,1.0,273.35286077897763,,,99,2023-07-24_16h00.49.775,FishGame,2023.1.3,59.85603473686067,
7,,,,,,,,,1condition/trialsB4.xlsx,"C4 B4- 7,7,6: (231),(213),(132)",stimuli/bead_g.PNG,stimuli/bead_g.PNG,stimuli/bead_b.PNG,stimuli/bead_g.PNG,stimuli/bead_g.PNG,2,3,right,,,,,0,4,4,3,0,6,6,6,,,,,,,,,,,,,,,,,,,,,,,,,,273.89482480095467,274.85200105799595,274.85200105799595,274.9021273839753,right,0.4389750430127606,None,1,1.0,275.3039671119768,,,99,2023-07-24_16h00.49.775,FishGame,2023.1.3,59.85603473686067,
8,,,,,,,,,1condition/trialsB4.xlsx,"C4 B4- 7,7,6: (231),(213),(132)",stimuli/bead_y.PNG,stimuli/bead_g.PNG,stimuli/bead_g.PNG,stimuli/bead_b.PNG,stimuli/bead_g.PNG,1,2,up,,,,,0,4,4,3,0,7,7,7,,,,,,,,,,,,,,,,,,,,,,,,,,275.8470195379923,276.8126157730003,276.8126157730003,276.8416006169864,right,0.42591378500219434,None,0,1.0,277.2546026429627,,,99,2023-07-24_16h00.49.775,FishGame,2023.1.3,59.85603473686067,
9,,,,,,,,,1condition/trialsB4.xlsx,"C4 B4- 7,7,6: (231),(213),(132)",stimuli/bead_y.PNG,stimuli/bead_y.PNG,stimuli/bead_g.PNG,stimuli/bead_g.PNG,stimuli/bead_b.PNG,1,2,up,,,,,0,4,4,3,0,8,8,8,,,,,,,,,,,,,,,,,,,,,,,,,,277.7977303559892,278.2537941429764,278.2537941429764,278.3046290979837,up,0.6348663939861581,None,1,0.5,278.90630864398554,,,99,2023-07-24_16h00.49.775,FishGame,2023.1.3,59.85603473686067,
10,,,,,,,,,1condition/trialsB4.xlsx,"C4 B4- 7,7,6: (231),(213),(132)",stimuli/bead_y.PNG,stimuli/bead_y.PNG,stimuli/bead_y.PNG,stimuli/bead_g.PNG,stimuli/bead_g.PNG,1,2,up,,,,,0,4,4,3,0,9,9,9,,,,,,,,,,,,,,,,,,,,,,,,,,279.44981454400113,280.905485123978,280.905485123978,280.95545709400903,up,0.6026830180198886,None,1,1.5,281.5236946559744,,,99,2023-07-24_16h00.49.775,FishGame,2023.1.3,59.85603473686067,
11,,,,,,,,,1condition/trialsB4.xlsx,"C4 B4- 7,7,6: (231),(213),(132)",stimuli/bead_b.PNG,stimuli/bead_y.PNG,stimuli/bead_y.PNG,stimuli/bead_y.PNG,stimuli/bead_g.PNG,1,2,up,,,,,0,4,4,3,0,10,10,10,,,,,,,,,,,,,,,,,,,,,,,,,,282.0650351810036,283.0230996509781,283.0230996509781,283.0731965879677,up,0.9969097709981725,None,1,1.0,284.0252048049588,,,99,2023-07-24_16h00.49.775,FishGame,2023.1.3,59.85603473686067,
12,,,,,,,,,1condition/trialsB4.xlsx,"C4 B4- 7,7,6: (231),(213),(132)",stimuli/bead_y.PNG,stimuli/bead_b.PNG,stimuli/bead_y.PNG,stimuli/bead_y.PNG,stimuli/bead_y.PNG,1,2,up,,,,,0,4,4,3,0,11,11,11,,,,,,,,,,,,,,,,,,,,,,,,,,284.56760288297664,285.02423273795284,285.02423273795284,285.0743408809649,up,0.6156272140215151,None,1,0.5,285.6428690039902,,,99,2023-07-24_16h00.49.775,FishGame,2023.1.3,59.85603473686067,
13,,,,,,,,,1condition/trialsB4.xlsx,"C4 B4- 7,7,6: (231),(213),(132)",stimuli/bead_y.PNG,stimuli/bead_y.PNG,stimuli/bead_b.PNG,stimuli/bead_y.PNG,stimuli/bead_y.PNG,1,2,up,,,,,0,4,4,3,0,12,12,12,,,,,,,,,,,,,,,,,,,,,,,,,,286.1848538899794,287.1421556819696,287.1421556819696,287.19212256598985,up,0.4102315689669922,None,1,1.0,287.56060283700936,,,99,2023-07-24_16h00.49.775,FishGame,2023.1.3,59.85603473686067,
14,,,,,,,,,1condition/trialsB4.xlsx,"C4 B4- 7,7,6: (231),(213),(132)",stimuli/bead_y.PNG,stimuli/bead_y.PNG,stimuli/bead_y.PNG,stimuli/bead_b.PNG,stimuli/bead_y.PNG,1,2,up,,,,,0,4,4,3,0,13,13,13,,,,,,,,,,,,,,,,,,,,,,,,,,288.1019937939709,289.5601535079768,289.5601535079768,289.6102050009649,up,0.4695447529666126,None,1,1.5,290.0450226870016,,,99,2023-07-24_16h00.49.775,FishGame,2023.1.3,59.85603473686067,
15,,,,,,,,,1condition/trialsB4.xlsx,"C4 B4- 7,7,6: (231),(213),(132)",stimuli/bead_b.PNG,stimuli/bead_y.PNG,stimuli/bead_y.PNG,stimuli/bead_y.PNG,stimuli/bead_b.PNG,0,1,left,,,,,0,4,4,3,0,14,14,14,,,,,,,,,,,,,,,,,,,,,,,,,,290.588829913002,291.5446012779721,291.5446012779721,291.59460890397895,up,0.657459837035276,None,0,1.0,292.2129258179921,,,99,2023-07-24_16h00.49.775,FishGame,2023.1.3,59.85603473686067,
16,,,,,,,,,1condition/trialsB4.xlsx,"C4 B4- 7,7,6: (231),(213),(132)",stimuli/bead_g.PNG,stimuli/bead_b.PNG,stimuli/bead_y.PNG,stimuli/bead_y.PNG,stimuli/bead_y.PNG,0,1,left,,,,,0,4,4,3,0,15,15,15,,,,,,,,,,,,,,,,,,,,,,,,,,292.7553942389786,293.71255177696,293.71255177696,293.7624768280075,up,0.8006505349767394,None,0,1.0,294.5147281459649,,,99,2023-07-24_16h00.49.775,FishGame,2023.1.3,59.85603473686067,
17,,,,,,,,,1condition/trialsB4.xlsx,"C4 B4- 7,7,6: (231),(213),(132)",stimuli/bead_b.PNG,stimuli/bead_g.PNG,stimuli/bead_b.PNG,stimuli/bead_y.PNG,stimuli/bead_y.PNG,0,1,left,,,,,0,4,4,3,0,16,16,16,,,,,,,,,,,,,,,,,,,,,,,,,,295.05781798099633,296.01393726898823,296.01393726898823,296.06383362796623,left,0.9404694809927605,None,1,1.0,296.9657483729534,,,99,2023-07-24_16h00.49.775,FishGame,2023.1.3,59.85603473686067,
18,,,,,,,,,1condition/trialsB4.xlsx,"C4 B4- 7,7,6: (231),(213),(132)",stimuli/bead_b.PNG,stimuli/bead_b.PNG,stimuli/bead_g.PNG,stimuli/bead_b.PNG,stimuli/bead_y.PNG,0,1,left,,,,,0,4,4,3,0,17,17,17,,,,,,,,,,,,,,,,,,,,,,,,,,297.51029321196256,298.9655733969994,298.9655733969994,299.01565577997826,left,0.47725070000160486,None,1,1.5,299.4505756520084,,,99,2023-07-24_16h00.49.775,FishGame,2023.1.3,59.85603473686067,
19,,,,,,,,,1condition/trialsB4.xlsx,"C4 B4- 7,7,6: (231),(213),(132)",stimuli/bead_b.PNG,stimuli/bead_b.PNG,stimuli/bead_b.PNG,stimuli/bead_g.PNG,stimuli/bead_b.PNG,0,1,left,,,,,0,4,4,3,0,18,18,18,,,,,,,,,,,,,,,,,,,,,,,,,,299.9954195820028,300.44954742497066,300.44954742497066,300.49973333999515,left,0.8912314340122975,None,1,0.5,301.35175285697915,,,99,2023-07-24_16h00.49.775,FishGame,2023.1.3,59.85603473686067,
20,,,,,,,,,1condition/trialsB4.xlsx,"C4 B4- 7,7,6: (231),(213),(132)",stimuli/bead_y.PNG,stimuli/bead_b.PNG,stimuli/bead_b.PNG,stimuli/bead_b.PNG,stimuli/bead_g.PNG,0,1,left,,,,,0,4,4,3,0,19,19,19,,,,,,,,,,,,,,,,,,,,,,,,,,301.8959610289894,302.8511405029567,302.8511405029567,302.90111671498744,up,0.9929184539942071,None,0,1.0,303.85315407195594,,,99,2023-07-24_16h00.49.775,FishGame,2023.1.3,59.85603473686067,
1,,,,,,,,,1condition/trialsB3.xlsx,"C3 B3- 13,7: (321),(132)",stimuli/bead_g.PNG,stimuli/blank.JPG,stimuli/blank.JPG,stimuli/blank.JPG,stimuli/blank.JPG,2,3,right,,,,,0,5,5,2,0,0,0,0,,,,,,,,,,,,,,,,,,,,,,,,,,309.39279756095493,310.8554981650086,310.8554981650086,310.905525907001,right,0.7672627329593524,None,1,1.5,311.62453032599296,304.3852662209538,,99,2023-07-24_16h00.49.775,FishGame,2023.1.3,59.85603473686067,
2,,,,,,,,,1condition/trialsB3.xlsx,"C3 B3- 13,7: (321),(132)",stimuli/bead_g.PNG,stimuli/bead_g.PNG,stimuli/blank.JPG,stimuli/blank.JPG,stimuli/blank.JPG,2,3,right,,,,,0,5,5,2,0,1,1,1,,,,,,,,,,,,,,,,,,,,,,,,,,312.16156995500205,313.1400171829737,313.1400171829737,313.173342049995,right,0.7223094189539552,None,1,1.0,313.8751352749532,,,99,2023-07-24_16h00.49.775,FishGame,2023.1.3,59.85603473686067,
3,,,,,,,,,1condition/trialsB3.xlsx,"C3 B3- 13,7: (321),(132)",stimuli/bead_g.PNG,stimuli/bead_g.PNG,stimuli/bead_g.PNG,stimuli/blank.JPG,stimuli/blank.JPG,2,3,right,,,,,0,5,5,2,0,2,2,2,,,,,,,,,,,,,,,,,,,,,,,,,,314.41336244996637,314.87438590597594,314.87438590597594,314.9243690239964,right,0.06017364904982969,None,1,0.5,314.9427593550063,,,99,2023-07-24_16h00.49.775,FishGame,2023.1.3,59.85603473686067,
4,,,,,,,,,1condition/trialsB3.xlsx,"C3 B3- 13,7: (321),(132)",stimuli/bead_y.PNG,stimuli/bead_g.PNG,stimuli/bead_g.PNG,stimuli/bead_g.PNG,stimuli/blank.JPG,2,3,right,,,,,0,5,5,2,0,3,3,3,,,,,,,,,,,,,,,,,,,,,,,,,,315.483340198989,316.44175635796273,316.44175635796273,316.4919117729878,right,0.6071067360462621,None,1,1.0,317.06029560795287,,,99,2023-07-24_16h00.49.775,FishGame,2023.1.3,59.85603473686067,
5,,,,,,,,,1condition/trialsB3.xlsx,"C3 B3- 13,7: (321),(132)",stimuli/bead_g.PNG,stimuli/bead_y.PNG,stimuli/bead_g.PNG,stimuli/bead_g.PNG,stimuli/bead_g.PNG,2,3,right,,,,,0,5,5,2,0,4,4,4,,,,,,,,,,,,,,,,,,,,,,,,,,317.6026201079949,319.0600302160019,319.0600302160019,319.11009128100704,right,0.43070754199288785,None,1,1.5,319.4951319549582,,,99,2023-07-24_16h00.49.775,FishGame,2023.1.3,59.85603473686067,
6,,,,,,,,,1condition/trialsB3.xlsx,"C3 B3- 13,7: (321),(132)",stimuli/bead_y.PNG,stimuli/bead_g.PNG,stimuli/bead_y.PNG,stimuli/bead_g.PNG,stimuli/bead_g.PNG,2,3,right,,,,,0,5,5,2,0,5,5,5,,,,,,,,,,,,,,,,,,,,,,,,,,320.0370262209908,320.9944927080069,320.9944927080069,321.0445325069595,right,0.9072879799641669,None,1,1.0,321.9130816119723,,,99,2023-07-24_16h00.49.775,FishGame,2023.1.3,59.85603473686067,
7,,,,,,,,,1condition/trialsB3.xlsx,"C3 B3- 13,7: (321),(132)",stimuli/bead_g.PNG,stimuli/bead_y.PNG,stimuli/bead_g.PNG,stimuli/bead_y.PNG,stimuli/bead_g.PNG,2,3,right,,,,,0,5,5,2,0,6,6,6,,,,,,,,,,,,,,,,,,,,,,,,,,322.4562140610069,322.91225027898327,322.91225027898327,322.962286171969,right,0.49906933697639033,None,1,0.5,323.4143785199849,,,99,2023-07-24_16h00.49.775,FishGame,2023.1.3,59.85603473686067,
8,,,,,,,,,1condition/trialsB3.xlsx,"C3 B3- 13,7: (321),(132)",stimuli/bead_g.PNG,stimuli/bead_g.PNG,stimuli/bead_y.PNG,stimuli/bead_g.PNG,stimuli/bead_y.PNG,2,3,right,,,,,0,5,5,2,0,7,7,7,,,,,,,,,,,,,,,,,,,,,,,,,,323.95797828398645,324.4297346759704,324.4297346759704,324.462933770963,right,0.5043331939959899,None,1,0.5,324.94864735298324,,,99,2023-07-24_16h00.49.775,FishGame,2023.1.3,59.85603473686067,
9,,,,,,,,,1condition/trialsB3.xlsx,"C3 B3- 13,7: (321),(132)",stimuli/bead_g.PNG,stimuli/bead_g.PNG,stimuli/bead_g.PNG,stimuli/bead_y.PNG,stimuli/bead_g.PNG,2,3,right,,,,,0,5,5,2,0,8,8,8,,,,,,,,,,,,,,,,,,,,,,,,,,325.4902806279715,325.96402146597393,325.96402146597393,325.99731975299073,right,0.39274229598231614,None,1,0.5,326.36556360597024,,,99,2023-07-24_16h00.49.775,FishGame,2023.1.3,59.85603473686067,
10,,,,,,,,,1condition/trialsB3.xlsx,"C3 B3- 13,7: (321),(132)",stimuli/bead_b.PNG,stimuli/bead_g.PNG,stimuli/bead_g.PNG,stimuli/bead_g.PNG,stimuli/bead_y.PNG,2,3,right,,,,,0,5,5,2,0,9,9,9,,,,,,,,,,,,,,,,,,,,,,,,,,326.89320479298476,327.3648112390074,327.3648112390074,327.3981105979765,right,0.6681151629891247,None,1,0.5,328.04988824395696,,,99,2023-07-24_16h00.49.775,FishGame,2023.1.3,59.85603473686067,
11,,,,,,,,,1condition/trialsB3.xlsx,"C3 B3- 13,7: (321),(132)",stimuli/bead_g.PNG,stimuli/bead_b.PNG,stimuli/bead_g.PNG,stimuli/bead_g.PNG,stimuli/bead_g.PNG,2,3,right,,,,,0,5,5,2,0,10,10,10,,,,,,,,,,,,,,,,,,,,,,,,,,328.59322265995434,329.5493546669604,329.5493546669604,329.5993589059799,right,0.4542717339936644,None,1,1.0,330.01779149397044,,,99,2023-07-24_16h00.49.775,FishGame,2023.1.3,59.85603473686067,
12,,,,,,,,,1condition/trialsB3.xlsx,"C3 B3- 13,7: (321),(132)",stimuli/bead_g.PNG,stimuli/bead_g.PNG,stimuli/bead_b.PNG,stimuli/bead_g.PNG,stimuli/bead_g.PNG,2,3,right,,,,,0,5,5,2,0,11,11,11,,,,,,,,,,,,,,,,,,,,,,,,,,330.55960865097586,331.51716711599147,331.51716711599147,331.5671728570014,right,0.3843965010019019,None,1,1.0,331.91864325798815,,,99,2023-07-24_16h00.49.775,FishGame,2023.1.3,59.85603473686067,
13,,,,,,,,,1condition/trialsB3.xlsx,"C3 B3- 13,7: (321),(132)",stimuli/bead_g.PNG,stimuli/bead_g.PNG,stimuli/bead_g.PNG,stimuli/bead_b.PNG,stimuli/bead_g.PNG,2,3,right,,,,,0,5,5,2,0,12,12,12,,,,,,,,,,,,,,,,,,,,,,,,,,332.46210582298227,333.4183596709627,333.4183596709627,333.4682853400009,right,0.3586803099606186,None,1,1.0,333.7865701749688,,,99,2023-07-24_16h00.49.775,FishGame,2023.1.3,59.85603473686067,
14,,,,,,,,,1condition/trialsB3.xlsx,"C3 B3- 13,7: (321),(132)",stimuli/bead_b.PNG,stimuli/bead_g.PNG,stimuli/bead_g.PNG,stimuli/bead_g.PNG,stimuli/bead_b.PNG,0,1,left,,,,,0,5,5,2,0,13,13,13,,,,,,,,,,,,,,,,,,,,,,,,,,334.329986613011,335.78626347897807,335.78626347897807,335.8363685379736,right,0.6300161539693363,None,0,1.5,336.42181362595875,,,99,2023-07-24_16h00.49.775,FishGame,2023.1.3,59.85603473686067,
15,,,,,,,,,1condition/trialsB3.xlsx,"C3 B3- 13,7: (321),(132)",stimuli/bead_b.PNG,stimuli/bead_b.PNG,stimuli/bead_g.PNG,stimuli/bead_g.PNG,stimuli/bead_g.PNG,0,1,left,,,,,0,5,5,2,0,14,14,14,,,,,,,,,,,,,,,,,,,,,,,,,,336.96899364399724,337.9375437469571,337.9375437469571,337.9707245960017,right,0.7642734869732521,None,0,1.0,338.70591878599953,,,99,2023-07-24_16h00.49.775,FishGame,2023.1.3,59.85603473686067,
16,,,,,,,,,1condition/trialsB3.xlsx,"C3 B3- 13,7: (321),(132)",stimuli/bead_b.PNG,stimuli/bead_b.PNG,stimuli/bead_b.PNG,stimuli/bead_g.PNG,stimuli/bead_g.PNG,0,1,left,,,,,0,5,5,2,0,15,15,15,,,,,,,,,,,,,,,,,,,,,,,,,,339.24889946798794,340.2056082919589,340.2056082919589,340.25551649701083,left,0.7948797729914077,None,1,1.0,341.00777534698136,,,99,2023-07-24_16h00.49.775,FishGame,2023.1.3,59.85603473686067,
17,,,,,,,,,1condition/trialsB3.xlsx,"C3 B3- 13,7: (321),(132)",stimuli/bead_g.PNG,stimuli/bead_b.PNG,stimuli/bead_b.PNG,stimuli/bead_b.PNG,stimuli/bead_g.PNG,0,1,left,,,,,0,5,5,2,0,16,16,16,,,,,,,,,,,,,,,,,,,,,,,,,,341.5505950659863,342.0229534099926,342.0229534099926,342.056337751972,left,0.5141409829957411,None,1,0.5,342.5412717110012,,,99,2023-07-24_16h00.49.775,FishGame,2023.1.3,59.85603473686067,
18,,,,,,,,,1condition/trialsB3.xlsx,"C3 B3- 13,7: (321),(132)",stimuli/bead_b.PNG,stimuli/bead_g.PNG,stimuli/bead_b.PNG,stimuli/bead_b.PNG,stimuli/bead_b.PNG,0,1,left,,,,,0,5,5,2,0,17,17,17,,,,,,,,,,,,,,,,,,,,,,,,,,343.0858641859959,344.04073129495373,344.04073129495373,344.0907279609819,left,0.3912419170374051,None,1,1.0,344.44225989299593,,,99,2023-07-24_16h00.49.775,FishGame,2023.1.3,59.85603473686067,
19,,,,,,,,,1condition/trialsB3.xlsx,"C3 B3- 13,7: (321),(132)",stimuli/bead_g.PNG,stimuli/bead_b.PNG,stimuli/bead_g.PNG,stimuli/bead_b.PNG,stimuli/bead_b.PNG,0,1,left,,,,,0,5,5,2,0,18,18,18,,,,,,,,,,,,,,,,,,,,,,,,,,344.98657688999083,346.4420493459911,346.4420493459911,346.49286094895797,left,0.28175174398347735,None,1,1.5,346.7279363319976,,,99,2023-07-24_16h00.49.775,FishGame,2023.1.3,59.85603473686067,
20,,,,,,,,,1condition/trialsB3.xlsx,"C3 B3- 13,7: (321),(132)",stimuli/bead_b.PNG,stimuli/bead_g.PNG,stimuli/bead_b.PNG,stimuli/bead_g.PNG,stimuli/bead_b.PNG,0,1,left,,,,,0,5,5,2,0,19,19,19,,,,,,,,,,,,,,,,,,,,,,,,,,347.2727685649879,348.7434074829798,348.7434074829798,348.7767169259605,left,0.26237719296477735,None,1,1.5,349.0122716850019,,,99,2023-07-24_16h00.49.775,FishGame,2023.1.3,59.85603473686067,
,,,,,,,,,,,,,,,,,,,,,,,,,,,,,,,,,,,,,,,,,,,,,,,,,,,,,,,,,,,,,,,,,,349.543859419995,1,,,,,,
