condsFile,readyMsg,trial,fish1,fish2,fish3,fish4,fish5,pond,pond2,pond3,block.thisRepN,block.thisTrialN,block.thisN,block.thisIndex,trials.thisRepN,trials.thisTrialN,trials.thisN,trials.thisIndex,text_2.started,ins2_key.started,pracStart_key.started,pracStart_key.keys,pracStart_key.rt,pracStart_key.duration,box_show.started,F1.started,fish_key_button.started,box_show.stopped,fish_key_button.keys,fish_key_button.rt,fish_key_button.duration,fish_key.corr,fish_interval,key_time,breakStart_txt.started,reward_block_chosen,participant,date,expName,psychopyVersion,frameRate,
,,,,,,,,,,,,,,,,,,,14.081455599982291,14.081455599982291,15.190233285014983,space,1.5647837260039523,None,,,,,,,,,,,,,99,2023-07-19_15h14.19.574,FishGame,2023.1.3,60.00231476582956,
1condition/trialsB6.xlsx,"C6 B6- 7,13: (312),(123)",1,stimuli/bead_y.PNG,stimuli/blank.JPG,stimuli/blank.JPG,stimuli/blank.JPG,stimuli/blank.JPG,1,2,down,0,0,0,5,0,0,0,0,,,,,,,16.871267762966454,17.779007650970016,17.779007650970016,17.879030802985653,left,3.2585761500522494,None,0,1.0,21.049838072969578,,,99,2023-07-19_15h14.19.574,FishGame,2023.1.3,60.00231476582956,
1condition/trialsB6.xlsx,"C6 B6- 7,13: (312),(123)",2,stimuli/bead_y.PNG,stimuli/bead_y.PNG,stimuli/blank.JPG,stimuli/blank.JPG,stimuli/blank.JPG,1,2,down,0,0,0,5,0,1,1,1,,,,,,,21.589498798013665,22.06456030299887,22.06456030299887,22.097730355977546,down,1.8828128710156307,None,1,0.5,23.950619386974722,,,99,2023-07-19_15h14.19.574,FishGame,2023.1.3,60.00231476582956,
1condition/trialsB6.xlsx,"C6 B6- 7,13: (312),(123)",3,stimuli/bead_g.PNG,stimuli/bead_y.PNG,stimuli/bead_y.PNG,stimuli/blank.JPG,stimuli/blank.JPG,1,2,down,0,0,0,5,0,2,2,2,,,,,,,24.49115192500176,24.966243401984684,24.966243401984684,24.999560409982223,right,2.0809488500235602,None,0,0.5,27.05228729499504,,,99,2023-07-19_15h14.19.574,FishGame,2023.1.3,60.00231476582956,
1condition/trialsB6.xlsx,"C6 B6- 7,13: (312),(123)",4,stimuli/bead_g.PNG,stimuli/bead_g.PNG,stimuli/bead_y.PNG,stimuli/bead_y.PNG,stimuli/blank.JPG,1,2,down,0,0,0,5,0,3,3,3,,,,,,,27.593386547989212,28.552032681007404,28.552032681007404,28.60203112696763,right,0.9112616660422646,None,0,1.0,29.47047887998633,,,99,2023-07-19_15h14.19.574,FishGame,2023.1.3,60.00231476582956,
1condition/trialsB6.xlsx,"C6 B6- 7,13: (312),(123)",5,stimuli/bead_y.PNG,stimuli/bead_g.PNG,stimuli/bead_g.PNG,stimuli/bead_y.PNG,stimuli/bead_y.PNG,1,2,down,0,0,0,5,0,4,4,4,,,,,,,30.0132084210054,30.969552616006695,30.969552616006695,31.019531268975697,down,0.7672873879782856,None,1,1.0,31.738398051005788,,,99,2023-07-19_15h14.19.574,FishGame,2023.1.3,60.00231476582956,
1condition/trialsB6.xlsx,"C6 B6- 7,13: (312),(123)",6,stimuli/bead_y.PNG,stimuli/bead_y.PNG,stimuli/bead_g.PNG,stimuli/bead_g.PNG,stimuli/bead_y.PNG,1,2,down,0,0,0,5,0,5,5,5,,,,,,,32.27925648196833,32.75389783200808,32.75389783200808,32.78732400300214,down,0.8992407380137593,None,1,0.5,33.65614447701955,,,99,2023-07-19_15h14.19.574,FishGame,2023.1.3,60.00231476582956,
1condition/trialsB6.xlsx,"C6 B6- 7,13: (312),(123)",7,stimuli/bead_y.PNG,stimuli/bead_y.PNG,stimuli/bead_y.PNG,stimuli/bead_g.PNG,stimuli/bead_g.PNG,1,2,down,0,0,0,5,0,6,6,6,,,,,,,34.19699093600502,35.155321524012834,35.155321524012834,35.205284890020266,down,0.6552812150330283,None,1,1.0,35.82377432199428,,,99,2023-07-19_15h14.19.574,FishGame,2023.1.3,60.00231476582956,
1condition/trialsB6.xlsx,"C6 B6- 7,13: (312),(123)",8,stimuli/bead_b.PNG,stimuli/bead_y.PNG,stimuli/bead_y.PNG,stimuli/bead_y.PNG,stimuli/bead_g.PNG,0,1,left,0,0,0,5,0,7,7,7,,,,,,,36.38062834297307,36.82287821196951,36.82287821196951,36.889588480989914,down,1.4341204930096865,None,0,0.5,38.25857060897397,,,99,2023-07-19_15h14.19.574,FishGame,2023.1.3,60.00231476582956,
1condition/trialsB6.xlsx,"C6 B6- 7,13: (312),(123)",9,stimuli/bead_b.PNG,stimuli/bead_b.PNG,stimuli/bead_y.PNG,stimuli/bead_y.PNG,stimuli/bead_y.PNG,0,1,left,0,0,0,5,0,8,8,8,,,,,,,38.800860926974565,40.25838512997143,40.25838512997143,40.308384858013596,left,0.9441527350572869,None,1,1.5,41.21003447897965,,,99,2023-07-19_15h14.19.574,FishGame,2023.1.3,60.00231476582956,
1condition/trialsB6.xlsx,"C6 B6- 7,13: (312),(123)",10,stimuli/bead_b.PNG,stimuli/bead_b.PNG,stimuli/bead_b.PNG,stimuli/bead_y.PNG,stimuli/bead_y.PNG,0,1,left,0,0,0,5,0,9,9,9,,,,,,,41.752349108981434,42.213389186013956,42.213389186013956,42.25935592298629,left,0.4900664080050774,None,1,0.5,42.71099107002374,,,99,2023-07-19_15h14.19.574,FishGame,2023.1.3,60.00231476582956,
1condition/trialsB6.xlsx,"C6 B6- 7,13: (312),(123)",11,stimuli/bead_g.PNG,stimuli/bead_b.PNG,stimuli/bead_b.PNG,stimuli/bead_b.PNG,stimuli/bead_y.PNG,0,1,left,0,0,0,5,0,10,10,10,,,,,,,43.25427966599818,44.71074005099945,44.71074005099945,44.76074706198415,left,1.0529487170279026,None,1,1.5,45.77918148902245,,,99,2023-07-19_15h14.19.574,FishGame,2023.1.3,60.00231476582956,
1condition/trialsB6.xlsx,"C6 B6- 7,13: (312),(123)",12,stimuli/bead_b.PNG,stimuli/bead_g.PNG,stimuli/bead_b.PNG,stimuli/bead_b.PNG,stimuli/bead_b.PNG,0,1,left,0,0,0,5,0,11,11,11,,,,,,,46.324421687982976,47.27898044901667,47.27898044901667,47.32889180898201,left,0.6369947380153462,None,1,1.0,47.93054666701937,,,99,2023-07-19_15h14.19.574,FishGame,2023.1.3,60.00231476582956,
1condition/trialsB6.xlsx,"C6 B6- 7,13: (312),(123)",13,stimuli/bead_y.PNG,stimuli/bead_b.PNG,stimuli/bead_g.PNG,stimuli/bead_b.PNG,stimuli/bead_b.PNG,0,1,left,0,0,0,5,0,12,12,12,,,,,,,48.47561023599701,48.929955396975856,48.929955396975856,48.97997118998319,left,1.1862232129788026,None,1,0.5,50.13218008901458,,,99,2023-07-19_15h14.19.574,FishGame,2023.1.3,60.00231476582956,
1condition/trialsB6.xlsx,"C6 B6- 7,13: (312),(123)",14,stimuli/bead_b.PNG,stimuli/bead_y.PNG,stimuli/bead_b.PNG,stimuli/bead_g.PNG,stimuli/bead_b.PNG,0,1,left,0,0,0,5,0,13,13,13,,,,,,,50.67802666500211,51.147643252974376,51.147643252974376,51.18097263597883,left,0.47146468103164807,None,1,0.5,51.63245635601925,,,99,2023-07-19_15h14.19.574,FishGame,2023.1.3,60.00231476582956,
1condition/trialsB6.xlsx,"C6 B6- 7,13: (312),(123)",15,stimuli/bead_b.PNG,stimuli/bead_b.PNG,stimuli/bead_y.PNG,stimuli/bead_b.PNG,stimuli/bead_g.PNG,0,1,left,0,0,0,5,0,14,14,14,,,,,,,52.17767623701366,53.13203592499485,53.13203592499485,53.18225295597222,left,0.47416965605225414,None,1,1.0,53.616977438970935,,,99,2023-07-19_15h14.19.574,FishGame,2023.1.3,60.00231476582956,
1condition/trialsB6.xlsx,"C6 B6- 7,13: (312),(123)",16,stimuli/bead_b.PNG,stimuli/bead_b.PNG,stimuli/bead_b.PNG,stimuli/bead_y.PNG,stimuli/bead_b.PNG,0,1,left,0,0,0,5,0,15,15,15,,,,,,,54.162585693004075,55.6168166740099,55.6168166740099,55.66682371200295,left,0.46359619207214564,None,1,1.5,56.08534385898383,,,99,2023-07-19_15h14.19.574,FishGame,2023.1.3,60.00231476582956,
1condition/trialsB6.xlsx,"C6 B6- 7,13: (312),(123)",17,stimuli/bead_g.PNG,stimuli/bead_b.PNG,stimuli/bead_b.PNG,stimuli/bead_b.PNG,stimuli/bead_y.PNG,0,1,left,0,0,0,5,0,16,16,16,,,,,,,56.62922649696702,57.08415094402153,57.08415094402153,57.13428204797674,left,0.8309084490174428,None,1,0.5,57.91929505800363,,,99,2023-07-19_15h14.19.574,FishGame,2023.1.3,60.00231476582956,
1condition/trialsB6.xlsx,"C6 B6- 7,13: (312),(123)",18,stimuli/bead_b.PNG,stimuli/bead_g.PNG,stimuli/bead_b.PNG,stimuli/bead_b.PNG,stimuli/bead_b.PNG,0,1,left,0,0,0,5,0,17,17,17,,,,,,,58.4641922970186,59.91959043598035,59.91959043598035,59.96938406600384,left,0.6915290710167028,None,1,1.5,60.62099317397224,,,99,2023-07-19_15h14.19.574,FishGame,2023.1.3,60.00231476582956,
1condition/trialsB6.xlsx,"C6 B6- 7,13: (312),(123)",19,stimuli/bead_b.PNG,stimuli/bead_b.PNG,stimuli/bead_g.PNG,stimuli/bead_b.PNG,stimuli/bead_b.PNG,0,1,left,0,0,0,5,0,18,18,18,,,,,,,61.166870079003274,62.62073252897244,62.62073252897244,62.67066937498748,left,0.4875413170084357,None,1,1.5,63.1223339610151,,,99,2023-07-19_15h14.19.574,FishGame,2023.1.3,60.00231476582956,
1condition/trialsB6.xlsx,"C6 B6- 7,13: (312),(123)",20,stimuli/bead_b.PNG,stimuli/bead_b.PNG,stimuli/bead_b.PNG,stimuli/bead_g.PNG,stimuli/bead_b.PNG,0,1,left,0,0,0,5,0,19,19,19,,,,,,,63.66688113298733,64.62185196497012,64.62185196497012,64.67187863599975,left,0.6156993900076486,None,1,1.0,65.24063139699865,,,99,2023-07-19_15h14.19.574,FishGame,2023.1.3,60.00231476582956,
1condition/trialsB4.xlsx,"C4 B4- 7,7,6: (231),(213),(132)",1,stimuli/bead_y.PNG,stimuli/blank.JPG,stimuli/blank.JPG,stimuli/blank.JPG,stimuli/blank.JPG,2,3,right,0,1,1,3,0,0,0,0,,,,,,,70.78110889997333,72.2428444380057,72.2428444380057,72.29280051699607,down,1.1036746129975654,None,0,1.5,73.36152203701204,65.77246072998969,,99,2023-07-19_15h14.19.574,FishGame,2023.1.3,60.00231476582956,
1condition/trialsB4.xlsx,"C4 B4- 7,7,6: (231),(213),(132)",2,stimuli/bead_g.PNG,stimuli/bead_y.PNG,stimuli/blank.JPG,stimuli/blank.JPG,stimuli/blank.JPG,2,3,right,0,1,1,3,0,1,1,1,,,,,,,73.89952750597149,74.86103583901422,74.86103583901422,74.91096835199278,down,0.5205726210260764,None,0,1.0,75.3958800350083,,,99,2023-07-19_15h14.19.574,FishGame,2023.1.3,60.00231476582956,
1condition/trialsB4.xlsx,"C4 B4- 7,7,6: (231),(213),(132)",3,stimuli/bead_g.PNG,stimuli/bead_g.PNG,stimuli/bead_y.PNG,stimuli/blank.JPG,stimuli/blank.JPG,2,3,right,0,1,1,3,0,2,2,2,,,,,,,75.93532437400427,77.39583979296731,77.39583979296731,77.4460473950021,right,0.6415111619862728,None,1,1.5,78.0474022399867,,,99,2023-07-19_15h14.19.574,FishGame,2023.1.3,60.00231476582956,
1condition/trialsB4.xlsx,"C4 B4- 7,7,6: (231),(213),(132)",4,stimuli/bead_g.PNG,stimuli/bead_g.PNG,stimuli/bead_g.PNG,stimuli/bead_y.PNG,stimuli/blank.JPG,2,3,right,0,1,1,3,0,3,3,3,,,,,,,78.5876623269869,79.54679654102074,79.54679654102074,79.59693070797948,right,0.44854263705201447,None,1,1.0,79.99869460600894,,,99,2023-07-19_15h14.19.574,FishGame,2023.1.3,60.00231476582956,
1condition/trialsB4.xlsx,"C4 B4- 7,7,6: (231),(213),(132)",5,stimuli/bead_b.PNG,stimuli/bead_g.PNG,stimuli/bead_g.PNG,stimuli/bead_g.PNG,stimuli/bead_y.PNG,2,3,right,0,1,1,3,0,4,4,4,,,,,,,80.54220991797047,81.99600161000853,81.99600161000853,82.038506907993,right,1.2145006480277516,None,1,1.5,83.21741324599134,,,99,2023-07-19_15h14.19.574,FishGame,2023.1.3,60.00231476582956,
1condition/trialsB4.xlsx,"C4 B4- 7,7,6: (231),(213),(132)",6,stimuli/bead_g.PNG,stimuli/bead_b.PNG,stimuli/bead_g.PNG,stimuli/bead_g.PNG,stimuli/bead_g.PNG,2,3,right,0,1,1,3,0,5,5,5,,,,,,,83.75971866998589,84.7164667629986,84.7164667629986,84.7664337909664,right,0.6068883170373738,None,1,1.0,85.33483587700175,,,99,2023-07-19_15h14.19.574,FishGame,2023.1.3,60.00231476582956,
1condition/trialsB4.xlsx,"C4 B4- 7,7,6: (231),(213),(132)",7,stimuli/bead_g.PNG,stimuli/bead_g.PNG,stimuli/bead_b.PNG,stimuli/bead_g.PNG,stimuli/bead_g.PNG,2,3,right,0,1,1,3,0,6,6,6,,,,,,,85.87650045397459,86.3340039710165,86.3340039710165,86.38405638199765,right,1.824288816016633,None,1,0.5,88.16948829498142,,,99,2023-07-19_15h14.19.574,FishGame,2023.1.3,60.00231476582956,
1condition/trialsB4.xlsx,"C4 B4- 7,7,6: (231),(213),(132)",8,stimuli/bead_y.PNG,stimuli/bead_g.PNG,stimuli/bead_g.PNG,stimuli/bead_b.PNG,stimuli/bead_g.PNG,1,2,down,0,1,1,3,0,7,7,7,,,,,,,88.71281245799037,89.66972393897595,89.66972393897595,89.71964377100812,right,1.8090257310541347,None,0,1.0,91.48816039797384,,,99,2023-07-19_15h14.19.574,FishGame,2023.1.3,60.00231476582956,
1condition/trialsB4.xlsx,"C4 B4- 7,7,6: (231),(213),(132)",9,stimuli/bead_y.PNG,stimuli/bead_y.PNG,stimuli/bead_g.PNG,stimuli/bead_g.PNG,stimuli/bead_b.PNG,1,2,down,0,1,1,3,0,8,8,8,,,,,,,92.03143724898109,92.48747526097577,92.48747526097577,92.53748594399076,right,1.0282589260023087,None,0,0.5,93.5228512629983,,,99,2023-07-19_15h14.19.574,FishGame,2023.1.3,60.00231476582956,
1condition/trialsB4.xlsx,"C4 B4- 7,7,6: (231),(213),(132)",10,stimuli/bead_y.PNG,stimuli/bead_y.PNG,stimuli/bead_y.PNG,stimuli/bead_g.PNG,stimuli/bead_g.PNG,1,2,down,0,1,1,3,0,9,9,9,,,,,,,94.06405409896979,95.02220683399355,95.02220683399355,95.07225845800713,down,0.777420655998867,None,1,1.0,95.80873836897081,,,99,2023-07-19_15h14.19.574,FishGame,2023.1.3,60.00231476582956,
1condition/trialsB4.xlsx,"C4 B4- 7,7,6: (231),(213),(132)",11,stimuli/bead_b.PNG,stimuli/bead_y.PNG,stimuli/bead_y.PNG,stimuli/bead_y.PNG,stimuli/bead_g.PNG,1,2,down,0,1,1,3,0,10,10,10,,,,,,,96.36220630496973,96.80831297702389,96.80831297702389,96.87577835499542,down,0.6307870170567185,None,1,0.5,97.44315825798549,,,99,2023-07-19_15h14.19.574,FishGame,2023.1.3,60.00231476582956,
1condition/trialsB4.xlsx,"C4 B4- 7,7,6: (231),(213),(132)",12,stimuli/bead_y.PNG,stimuli/bead_b.PNG,stimuli/bead_y.PNG,stimuli/bead_y.PNG,stimuli/bead_y.PNG,1,2,down,0,1,1,3,0,11,11,11,,,,,,,97.98511209397111,98.45756977901328,98.45756977901328,98.49093806301244,down,0.478008467995096,None,1,0.5,98.94286113698035,,,99,2023-07-19_15h14.19.574,FishGame,2023.1.3,60.00231476582956,
1condition/trialsB4.xlsx,"C4 B4- 7,7,6: (231),(213),(132)",13,stimuli/bead_y.PNG,stimuli/bead_y.PNG,stimuli/bead_b.PNG,stimuli/bead_y.PNG,stimuli/bead_y.PNG,1,2,down,0,1,1,3,0,12,12,12,,,,,,,99.4856461029849,100.94231934600975,100.94231934600975,100.99253019300522,down,3.6126371410209686,None,,1.5,98.94286113698035,,,99,2023-07-19_15h14.19.574,FishGame,2023.1.3,60.00231476582956,
1condition/trialsB4.xlsx,"C4 B4- 7,7,6: (231),(213),(132)",14,stimuli/bead_y.PNG,stimuli/bead_y.PNG,stimuli/bead_y.PNG,stimuli/bead_b.PNG,stimuli/bead_y.PNG,1,2,down,0,1,1,3,0,13,13,13,,,,,,,104.60953249101294,106.078404830012,106.078404830012,106.11197730700951,down,0.7341681779944338,None,1,1.5,106.83014315197943,,,99,2023-07-19_15h14.19.574,FishGame,2023.1.3,60.00231476582956,
1condition/trialsB4.xlsx,"C4 B4- 7,7,6: (231),(213),(132)",15,stimuli/bead_b.PNG,stimuli/bead_y.PNG,stimuli/bead_y.PNG,stimuli/bead_y.PNG,stimuli/bead_b.PNG,0,1,left,0,1,1,3,0,14,14,14,,,,,,,107.37332187499851,107.82953336200444,107.82953336200444,107.87949918099912,down,0.813133274030406,None,0,0.5,108.64828513702378,,,99,2023-07-19_15h14.19.574,FishGame,2023.1.3,60.00231476582956,
1condition/trialsB4.xlsx,"C4 B4- 7,7,6: (231),(213),(132)",16,stimuli/bead_g.PNG,stimuli/bead_b.PNG,stimuli/bead_y.PNG,stimuli/bead_y.PNG,stimuli/bead_y.PNG,0,1,left,0,1,1,3,0,15,15,15,,,,,,,109.19122245698236,109.66377501597162,109.66377501597162,109.69710927497363,down,0.5015139220049605,None,0,0.5,110.18213844497222,,,99,2023-07-19_15h14.19.574,FishGame,2023.1.3,60.00231476582956,
1condition/trialsB4.xlsx,"C4 B4- 7,7,6: (231),(213),(132)",17,stimuli/bead_b.PNG,stimuli/bead_g.PNG,stimuli/bead_b.PNG,stimuli/bead_y.PNG,stimuli/bead_y.PNG,0,1,left,0,1,1,3,0,16,16,16,,,,,,,110.72584784100763,111.18120165698929,111.18120165698929,111.23159066197695,down,0.5702111210557632,None,0,0.5,111.76637331896927,,,99,2023-07-19_15h14.19.574,FishGame,2023.1.3,60.00231476582956,
1condition/trialsB4.xlsx,"C4 B4- 7,7,6: (231),(213),(132)",18,stimuli/bead_b.PNG,stimuli/bead_b.PNG,stimuli/bead_g.PNG,stimuli/bead_b.PNG,stimuli/bead_y.PNG,0,1,left,0,1,1,3,0,17,17,17,,,,,,,112.31079238798702,113.26584568497492,113.26584568497492,113.31586905801669,left,0.373043759027496,None,1,1.0,113.65069476701319,,,99,2023-07-19_15h14.19.574,FishGame,2023.1.3,60.00231476582956,
1condition/trialsB4.xlsx,"C4 B4- 7,7,6: (231),(213),(132)",19,stimuli/bead_b.PNG,stimuli/bead_b.PNG,stimuli/bead_b.PNG,stimuli/bead_g.PNG,stimuli/bead_b.PNG,0,1,left,0,1,1,3,0,18,18,18,,,,,,,114.21020341297844,115.15036585502094,115.15036585502094,115.21687858301448,left,0.48611129802884534,None,1,1.0,115.65160342800664,,,99,2023-07-19_15h14.19.574,FishGame,2023.1.3,60.00231476582956,
1condition/trialsB4.xlsx,"C4 B4- 7,7,6: (231),(213),(132)",20,stimuli/bead_y.PNG,stimuli/bead_b.PNG,stimuli/bead_b.PNG,stimuli/bead_b.PNG,stimuli/bead_g.PNG,0,1,left,0,1,1,3,0,19,19,19,,,,,,,116.19568239798537,116.65086749900365,116.65086749900365,116.70094742102083,left,0.348398078000173,None,1,0.5,117.00328872498358,,,99,2023-07-19_15h14.19.574,FishGame,2023.1.3,60.00231476582956,
1condition/trialsB5.xlsx,"C5 B5- 8,12: (132),(321)",1,stimuli/bead_b.PNG,stimuli/blank.JPG,stimuli/blank.JPG,stimuli/blank.JPG,stimuli/blank.JPG,0,1,left,0,2,2,4,0,0,0,0,,,,,,,122.54372689902084,124.00515479000751,124.00515479000751,124.05532175698318,None,,,,1.5,117.00328872498358,117.53473424701951,,99,2023-07-19_15h14.19.574,FishGame,2023.1.3,60.00231476582956,
1condition/trialsB5.xlsx,"C5 B5- 8,12: (132),(321)",2,stimuli/bead_g.PNG,stimuli/bead_b.PNG,stimuli/blank.JPG,stimuli/blank.JPG,stimuli/blank.JPG,0,1,left,0,2,2,4,0,1,1,1,,,,,,,127.7460681219818,128.22425472497707,128.22425472497707,128.2575748700183,None,,,,0.5,117.00328872498358,,,99,2023-07-19_15h14.19.574,FishGame,2023.1.3,60.00231476582956,
1condition/trialsB5.xlsx,"C5 B5- 8,12: (132),(321)",3,stimuli/bead_b.PNG,stimuli/bead_g.PNG,stimuli/bead_b.PNG,stimuli/blank.JPG,stimuli/blank.JPG,0,1,left,0,2,2,4,0,2,2,2,,,,,,,132.9694453299744,134.44448237499455,134.44448237499455,134.47789068997372,None,,,,1.5,117.00328872498358,,,99,2023-07-19_15h14.19.574,FishGame,2023.1.3,60.00231476582956,
1condition/trialsB5.xlsx,"C5 B5- 8,12: (132),(321)",4,stimuli/bead_y.PNG,stimuli/bead_b.PNG,stimuli/bead_g.PNG,stimuli/bead_b.PNG,stimuli/blank.JPG,0,1,left,0,2,2,4,0,3,3,3,,,,,,,138.19178771297447,139.66395329497755,139.66395329497755,139.697301644017,None,,,,1.5,117.00328872498358,,,99,2023-07-19_15h14.19.574,FishGame,2023.1.3,60.00231476582956,
1condition/trialsB5.xlsx,"C5 B5- 8,12: (132),(321)",5,stimuli/bead_b.PNG,stimuli/bead_y.PNG,stimuli/bead_b.PNG,stimuli/bead_g.PNG,stimuli/bead_b.PNG,0,1,left,0,2,2,4,0,4,4,4,,,,,,,143.41544738202356,144.88354891899507,144.88354891899507,144.9169798300136,None,,,,1.5,117.00328872498358,,,99,2023-07-19_15h14.19.574,FishGame,2023.1.3,60.00231476582956,
1condition/trialsB5.xlsx,"C5 B5- 8,12: (132),(321)",6,stimuli/bead_b.PNG,stimuli/bead_b.PNG,stimuli/bead_y.PNG,stimuli/bead_b.PNG,stimuli/bead_g.PNG,0,1,left,0,2,2,4,0,5,5,5,,,,,,,148.6378103349707,149.6199283049791,149.6199283049791,149.6533039790229,None,,,,1.0,117.00328872498358,,,99,2023-07-19_15h14.19.574,FishGame,2023.1.3,60.00231476582956,
1condition/trialsB5.xlsx,"C5 B5- 8,12: (132),(321)",7,stimuli/bead_y.PNG,stimuli/bead_b.PNG,stimuli/bead_b.PNG,stimuli/bead_y.PNG,stimuli/bead_b.PNG,0,1,left,0,2,2,4,0,6,6,6,,,,,,,153.87251996900886,154.85603148199152,154.85603148199152,154.87276655400638,down,3.6120544190052897,None,0,1.0,158.47596002498176,,,99,2023-07-19_15h14.19.574,FishGame,2023.1.3,60.00231476582956,
1condition/trialsB5.xlsx,"C5 B5- 8,12: (132),(321)",8,stimuli/bead_b.PNG,stimuli/bead_y.PNG,stimuli/bead_b.PNG,stimuli/bead_b.PNG,stimuli/bead_y.PNG,0,1,left,0,2,2,4,0,7,7,7,,,,,,,159.02099939796608,160.475723275973,160.475723275973,160.52571479202015,down,0.35904910700628534,None,0,1.5,160.84411285299575,,,99,2023-07-19_15h14.19.574,FishGame,2023.1.3,60.00231476582956,
1condition/trialsB5.xlsx,"C5 B5- 8,12: (132),(321)",9,stimuli/bead_g.PNG,stimuli/bead_b.PNG,stimuli/bead_y.PNG,stimuli/bead_b.PNG,stimuli/bead_b.PNG,2,3,right,0,2,2,4,0,8,8,8,,,,,,,161.38888456497807,162.34364245302277,162.34364245302277,162.39354165398981,left,0.12796066998271272,None,0,1.0,162.47839695599396,,,99,2023-07-19_15h14.19.574,FishGame,2023.1.3,60.00231476582956,
1condition/trialsB5.xlsx,"C5 B5- 8,12: (132),(321)",10,stimuli/bead_g.PNG,stimuli/bead_g.PNG,stimuli/bead_b.PNG,stimuli/bead_y.PNG,stimuli/bead_b.PNG,2,3,right,0,2,2,4,0,9,9,9,,,,,,,163.02412205102155,164.47826314199483,164.47826314199483,164.52821147197392,left,0.39042232505744323,None,0,1.5,164.8796244119876,,,99,2023-07-19_15h14.19.574,FishGame,2023.1.3,60.00231476582956,
1condition/trialsB5.xlsx,"C5 B5- 8,12: (132),(321)",11,stimuli/bead_y.PNG,stimuli/bead_g.PNG,stimuli/bead_g.PNG,stimuli/bead_b.PNG,stimuli/bead_y.PNG,2,3,right,0,2,2,4,0,10,10,10,,,,,,,165.42275631602388,165.87867796700448,165.87867796700448,165.92868146998808,right,0.8766011440311559,None,1,0.5,166.76374996599043,,,99,2023-07-19_15h14.19.574,FishGame,2023.1.3,60.00231476582956,
1condition/trialsB5.xlsx,"C5 B5- 8,12: (132),(321)",12,stimuli/bead_g.PNG,stimuli/bead_y.PNG,stimuli/bead_g.PNG,stimuli/bead_g.PNG,stimuli/bead_b.PNG,2,3,right,0,2,2,4,0,11,11,11,,,,,,,167.30673314601881,167.7631116649718,167.7631116649718,167.81311125901993,right,0.4370394129655324,None,1,0.5,168.21462565200636,,,99,2023-07-19_15h14.19.574,FishGame,2023.1.3,60.00231476582956,
1condition/trialsB5.xlsx,"C5 B5- 8,12: (132),(321)",13,stimuli/bead_g.PNG,stimuli/bead_g.PNG,stimuli/bead_y.PNG,stimuli/bead_g.PNG,stimuli/bead_g.PNG,2,3,right,0,2,2,4,0,12,12,12,,,,,,,168.7572445559781,169.2139537250041,169.2139537250041,169.26397716702195,right,0.39223077602218837,None,1,0.5,169.61549334897427,,,99,2023-07-19_15h14.19.574,FishGame,2023.1.3,60.00231476582956,
1condition/trialsB5.xlsx,"C5 B5- 8,12: (132),(321)",14,stimuli/bead_g.PNG,stimuli/bead_g.PNG,stimuli/bead_g.PNG,stimuli/bead_y.PNG,stimuli/bead_g.PNG,2,3,right,0,2,2,4,0,13,13,13,,,,,,,170.15778463700553,170.61466811201535,170.61466811201535,170.66474535799352,right,0.3696756290155463,None,1,0.5,170.99957225797698,,,99,2023-07-19_15h14.19.574,FishGame,2023.1.3,60.00231476582956,
1condition/trialsB5.xlsx,"C5 B5- 8,12: (132),(321)",15,stimuli/bead_g.PNG,stimuli/bead_g.PNG,stimuli/bead_g.PNG,stimuli/bead_g.PNG,stimuli/bead_y.PNG,2,3,right,0,2,2,4,0,14,14,14,,,,,,,171.54209486098262,171.99887628096621,171.99887628096621,172.04883421299746,right,1.124407459050417,None,1,0.5,173.13440383900888,,,99,2023-07-19_15h14.19.574,FishGame,2023.1.3,60.00231476582956,
1condition/trialsB5.xlsx,"C5 B5- 8,12: (132),(321)",16,stimuli/bead_b.PNG,stimuli/bead_g.PNG,stimuli/bead_g.PNG,stimuli/bead_g.PNG,stimuli/bead_g.PNG,2,3,right,0,2,2,4,0,15,15,15,,,,,,,173.67699671100127,175.1339013170218,175.1339013170218,175.18405673396774,right,0.9180724960169755,None,1,1.5,176.06957478501135,,,99,2023-07-19_15h14.19.574,FishGame,2023.1.3,60.00231476582956,
1condition/trialsB5.xlsx,"C5 B5- 8,12: (132),(321)",17,stimuli/bead_g.PNG,stimuli/bead_b.PNG,stimuli/bead_g.PNG,stimuli/bead_g.PNG,stimuli/bead_g.PNG,2,3,right,0,2,2,4,0,16,16,16,,,,,,,176.61109484802,177.56902021099813,177.56902021099813,177.61907724599587,right,0.3980524340295233,None,1,1.0,177.9709055799758,,,99,2023-07-19_15h14.19.574,FishGame,2023.1.3,60.00231476582956,
1condition/trialsB5.xlsx,"C5 B5- 8,12: (132),(321)",18,stimuli/bead_b.PNG,stimuli/bead_g.PNG,stimuli/bead_b.PNG,stimuli/bead_g.PNG,stimuli/bead_g.PNG,2,3,right,0,2,2,4,0,17,17,17,,,,,,,178.51404616999207,178.98626603500452,178.98626603500452,179.019522794988,right,0.4011077030445449,None,1,0.5,179.40468171896646,,,99,2023-07-19_15h14.19.574,FishGame,2023.1.3,60.00231476582956,
1condition/trialsB5.xlsx,"C5 B5- 8,12: (132),(321)",19,stimuli/bead_g.PNG,stimuli/bead_b.PNG,stimuli/bead_g.PNG,stimuli/bead_b.PNG,stimuli/bead_g.PNG,2,3,right,0,2,2,4,0,18,18,18,,,,,,,179.94822308199946,180.90377401502337,180.90377401502337,180.95389373699436,right,0.12303982104640454,None,1,1.0,181.03855663299328,,,99,2023-07-19_15h14.19.574,FishGame,2023.1.3,60.00231476582956,
1condition/trialsB5.xlsx,"C5 B5- 8,12: (132),(321)",20,stimuli/bead_g.PNG,stimuli/bead_g.PNG,stimuli/bead_b.PNG,stimuli/bead_g.PNG,stimuli/bead_b.PNG,2,3,right,0,2,2,4,0,19,19,19,,,,,,,181.5836939329747,182.53800879698247,182.53800879698247,182.5883144090185,right,0.16721776104532182,None,1,1.0,182.7068661589874,,,99,2023-07-19_15h14.19.574,FishGame,2023.1.3,60.00231476582956,
1condition/trialsB1.xlsx,"C1 B1- 12,8: (213),(231)",1,stimuli/bead_g.PNG,stimuli/blank.JPG,stimuli/blank.JPG,stimuli/blank.JPG,stimuli/blank.JPG,1,2,down,0,3,3,0,0,0,0,0,,,,,,,188.24501807498746,189.20850658300333,189.20850658300333,189.2584745310014,right,0.7446976390201598,None,0,1.0,189.96044777997304,183.2384018659941,,99,2023-07-19_15h14.19.574,FishGame,2023.1.3,60.00231476582956,
1condition/trialsB1.xlsx,"C1 B1- 12,8: (213),(231)",2,stimuli/bead_y.PNG,stimuli/bead_g.PNG,stimuli/blank.JPG,stimuli/blank.JPG,stimuli/blank.JPG,1,2,down,0,3,3,0,0,1,1,1,,,,,,,190.49930410296656,190.95969287899788,190.95969287899788,191.00973374798195,right,1.0759573870454915,None,0,0.5,192.04491497098934,,,99,2023-07-19_15h14.19.574,FishGame,2023.1.3,60.00231476582956,
1condition/trialsB1.xlsx,"C1 B1- 12,8: (213),(231)",3,stimuli/bead_y.PNG,stimuli/bead_y.PNG,stimuli/bead_g.PNG,stimuli/blank.JPG,stimuli/blank.JPG,1,2,down,0,3,3,0,0,2,2,2,,,,,,,192.58473188400967,194.0446620779694,194.0446620779694,194.0943657809985,down,0.9450870190630667,None,1,1.5,194.99697515997104,,,99,2023-07-19_15h14.19.574,FishGame,2023.1.3,60.00231476582956,
1condition/trialsB1.xlsx,"C1 B1- 12,8: (213),(231)",4,stimuli/bead_y.PNG,stimuli/bead_y.PNG,stimuli/bead_y.PNG,stimuli/bead_g.PNG,stimuli/blank.JPG,1,2,down,0,3,3,0,0,3,3,3,,,,,,,195.5370164909982,196.99607104301685,196.99607104301685,197.0461761970073,down,0.520113707985729,None,1,1.5,197.53140901000006,,,99,2023-07-19_15h14.19.574,FishGame,2023.1.3,60.00231476582956,
1condition/trialsB1.xlsx,"C1 B1- 12,8: (213),(231)",5,stimuli/bead_b.PNG,stimuli/bead_y.PNG,stimuli/bead_y.PNG,stimuli/bead_y.PNG,stimuli/bead_g.PNG,1,2,down,0,3,3,0,0,4,4,4,,,,,,,198.07588623597985,198.5304496989702,198.5304496989702,198.58040210901527,down,0.7520051010651514,None,1,0.5,199.2987533750129,,,99,2023-07-19_15h14.19.574,FishGame,2023.1.3,60.00231476582956,
1condition/trialsB1.xlsx,"C1 B1- 12,8: (213),(231)",6,stimuli/bead_y.PNG,stimuli/bead_b.PNG,stimuli/bead_y.PNG,stimuli/bead_y.PNG,stimuli/bead_y.PNG,1,2,down,0,3,3,0,0,5,5,5,,,,,,,199.84123507299228,200.79831712099258,200.79831712099258,200.8484338389826,down,0.47789283603196964,None,1,1.0,201.28383390797535,,,99,2023-07-19_15h14.19.574,FishGame,2023.1.3,60.00231476582956,
1condition/trialsB1.xlsx,"C1 B1- 12,8: (213),(231)",7,stimuli/bead_y.PNG,stimuli/bead_y.PNG,stimuli/bead_b.PNG,stimuli/bead_y.PNG,stimuli/bead_y.PNG,1,2,down,0,3,3,0,0,6,6,6,,,,,,,201.82511167699704,202.7828726489679,202.7828726489679,202.83285514899762,down,0.45025393401738256,None,1,1.0,203.23490987496916,,,99,2023-07-19_15h14.19.574,FishGame,2023.1.3,60.00231476582956,
1condition/trialsB1.xlsx,"C1 B1- 12,8: (213),(231)",8,stimuli/bead_y.PNG,stimuli/bead_y.PNG,stimuli/bead_y.PNG,stimuli/bead_b.PNG,stimuli/bead_y.PNG,1,2,down,0,3,3,0,0,7,7,7,,,,,,,203.80266006296733,205.2339477270143,205.2339477270143,205.31752763298573,down,0.4573068470344879,None,1,1.5,205.7026618309901,,,99,2023-07-19_15h14.19.574,FishGame,2023.1.3,60.00231476582956,
1condition/trialsB1.xlsx,"C1 B1- 12,8: (213),(231)",9,stimuli/bead_y.PNG,stimuli/bead_y.PNG,stimuli/bead_y.PNG,stimuli/bead_y.PNG,stimuli/bead_b.PNG,1,2,down,0,3,3,0,0,8,8,8,,,,,,,206.2446707279887,207.2018207149813,207.2018207149813,207.25183221697807,down,0.8776848380221054,None,1,1.0,208.08772380900336,,,99,2023-07-19_15h14.19.574,FishGame,2023.1.3,60.00231476582956,
1condition/trialsB1.xlsx,"C1 B1- 12,8: (213),(231)",10,stimuli/bead_b.PNG,stimuli/bead_y.PNG,stimuli/bead_y.PNG,stimuli/bead_y.PNG,stimuli/bead_y.PNG,1,2,down,0,3,3,0,0,9,9,9,,,,,,,208.62922718998743,209.60333995497786,209.60333995497786,209.63669134600786,down,0.5549647039733827,None,1,1.0,210.17176908999681,,,99,2023-07-19_15h14.19.574,FishGame,2023.1.3,60.00231476582956,
1condition/trialsB1.xlsx,"C1 B1- 12,8: (213),(231)",11,stimuli/bead_y.PNG,stimuli/bead_b.PNG,stimuli/bead_y.PNG,stimuli/bead_y.PNG,stimuli/bead_y.PNG,1,2,down,0,3,3,0,0,10,10,10,,,,,,,210.7138925010222,211.1708113019704,211.1708113019704,211.22087206097785,down,0.7542771750013344,None,1,0.5,211.9391616989742,,,99,2023-07-19_15h14.19.574,FishGame,2023.1.3,60.00231476582956,
1condition/trialsB1.xlsx,"C1 B1- 12,8: (213),(231)",12,stimuli/bead_y.PNG,stimuli/bead_y.PNG,stimuli/bead_b.PNG,stimuli/bead_y.PNG,stimuli/bead_y.PNG,1,2,down,0,3,3,0,0,11,11,11,,,,,,,212.48376388999168,213.93906382197747,213.93906382197747,213.98904626700096,down,0.4307086280314252,None,1,1.5,214.37447061599232,,,99,2023-07-19_15h14.19.574,FishGame,2023.1.3,60.00231476582956,
1condition/trialsB1.xlsx,"C1 B1- 12,8: (213),(231)",13,stimuli/bead_g.PNG,stimuli/bead_y.PNG,stimuli/bead_y.PNG,stimuli/bead_b.PNG,stimuli/bead_y.PNG,2,3,right,0,3,3,0,0,12,12,12,,,,,,,214.91641003097175,216.37370074697537,216.37370074697537,216.4238166490104,down,0.6695884100045078,None,0,1.5,217.05882857600227,,,99,2023-07-19_15h14.19.574,FishGame,2023.1.3,60.00231476582956,
1condition/trialsB1.xlsx,"C1 B1- 12,8: (213),(231)",14,stimuli/bead_g.PNG,stimuli/bead_g.PNG,stimuli/bead_y.PNG,stimuli/bead_y.PNG,stimuli/bead_b.PNG,2,3,right,0,3,3,0,0,13,13,13,,,,,,,217.60185276600532,219.05889475997537,219.05889475997537,219.1085844479967,right,0.554329997044988,None,1,1.5,219.62686643301276,,,99,2023-07-19_15h14.19.574,FishGame,2023.1.3,60.00231476582956,
1condition/trialsB1.xlsx,"C1 B1- 12,8: (213),(231)",15,stimuli/bead_y.PNG,stimuli/bead_g.PNG,stimuli/bead_g.PNG,stimuli/bead_y.PNG,stimuli/bead_y.PNG,2,3,right,0,3,3,0,0,14,14,14,,,,,,,220.16884122701595,221.62801715399837,221.62801715399837,221.6778559429804,right,1.018699236039538,None,1,1.5,222.66293394000968,,,99,2023-07-19_15h14.19.574,FishGame,2023.1.3,60.00231476582956,
1condition/trialsB1.xlsx,"C1 B1- 12,8: (213),(231)",16,stimuli/bead_g.PNG,stimuli/bead_y.PNG,stimuli/bead_g.PNG,stimuli/bead_g.PNG,stimuli/bead_y.PNG,2,3,right,0,3,3,0,0,15,15,15,,,,,,,223.20402436098084,224.17808297998272,224.17808297998272,224.2114248930011,right,0.42222661699634045,None,1,1.0,224.61300010600826,,,99,2023-07-19_15h14.19.574,FishGame,2023.1.3,60.00231476582956,
1condition/trialsB1.xlsx,"C1 B1- 12,8: (213),(231)",17,stimuli/bead_g.PNG,stimuli/bead_g.PNG,stimuli/bead_y.PNG,stimuli/bead_g.PNG,stimuli/bead_g.PNG,2,3,right,0,3,3,0,0,16,16,16,,,,,,,225.15594248700654,226.11251353600528,226.11251353600528,226.16251853399444,right,0.403182469017338,None,1,1.0,226.53079754998907,,,99,2023-07-19_15h14.19.574,FishGame,2023.1.3,60.00231476582956,
1condition/trialsB1.xlsx,"C1 B1- 12,8: (213),(231)",18,stimuli/bead_g.PNG,stimuli/bead_g.PNG,stimuli/bead_g.PNG,stimuli/bead_y.PNG,stimuli/bead_g.PNG,2,3,right,0,3,3,0,0,17,17,17,,,,,,,227.07459913002094,228.53054200299084,228.53054200299084,228.58055436098948,right,0.4171916320337914,None,1,1.5,228.9493601329741,,,99,2023-07-19_15h14.19.574,FishGame,2023.1.3,60.00231476582956,
1condition/trialsB1.xlsx,"C1 B1- 12,8: (213),(231)",19,stimuli/bead_b.PNG,stimuli/bead_g.PNG,stimuli/bead_g.PNG,stimuli/bead_g.PNG,stimuli/bead_y.PNG,2,3,right,0,3,3,0,0,18,18,18,,,,,,,229.49131400499027,230.94858053000644,230.94858053000644,230.99865857401164,right,0.590641716029495,None,1,1.5,231.55040216096677,,,99,2023-07-19_15h14.19.574,FishGame,2023.1.3,60.00231476582956,
1condition/trialsB1.xlsx,"C1 B1- 12,8: (213),(231)",20,stimuli/bead_g.PNG,stimuli/bead_b.PNG,stimuli/bead_g.PNG,stimuli/bead_g.PNG,stimuli/bead_g.PNG,2,3,right,0,3,3,0,0,19,19,19,,,,,,,232.0939068599837,233.55008653498953,233.55008653498953,233.6001115500112,right,0.458303107006941,None,1,1.5,234.01878634199966,,,99,2023-07-19_15h14.19.574,FishGame,2023.1.3,60.00231476582956,
1condition/trialsB3.xlsx,"C3 B3- 13,7: (321),(132)",1,stimuli/bead_g.PNG,stimuli/blank.JPG,stimuli/blank.JPG,stimuli/blank.JPG,stimuli/blank.JPG,2,3,right,0,4,4,2,0,0,0,0,,,,,,,239.55569883901626,240.02032841398614,240.02032841398614,240.0706537850201,right,0.9433469250216149,None,1,0.5,240.97235416201875,234.55065988801653,,99,2023-07-19_15h14.19.574,FishGame,2023.1.3,60.00231476582956,
1condition/trialsB3.xlsx,"C3 B3- 13,7: (321),(132)",2,stimuli/bead_g.PNG,stimuli/bead_g.PNG,stimuli/blank.JPG,stimuli/blank.JPG,stimuli/blank.JPG,2,3,right,0,4,4,2,0,1,1,1,,,,,,,241.50952569302171,241.9714352139854,241.9714352139854,242.02150050800992,right,0.4655380860203877,None,1,0.5,242.44014044600772,,,99,2023-07-19_15h14.19.574,FishGame,2023.1.3,60.00231476582956,
1condition/trialsB3.xlsx,"C3 B3- 13,7: (321),(132)",3,stimuli/bead_g.PNG,stimuli/bead_g.PNG,stimuli/bead_g.PNG,stimuli/blank.JPG,stimuli/blank.JPG,2,3,right,0,4,4,2,0,2,2,2,,,,,,,242.97838645701995,243.4556128489785,243.4556128489785,243.48896322899964,right,0.4149366850615479,None,1,0.5,243.8746748159756,,,99,2023-07-19_15h14.19.574,FishGame,2023.1.3,60.00231476582956,
1condition/trialsB3.xlsx,"C3 B3- 13,7: (321),(132)",4,stimuli/bead_y.PNG,stimuli/bead_g.PNG,stimuli/bead_g.PNG,stimuli/bead_g.PNG,stimuli/blank.JPG,2,3,right,0,4,4,2,0,3,3,3,,,,,,,244.41482862801058,245.87357846897794,245.87357846897794,245.92374414601363,right,0.7763668370316736,None,1,1.5,246.6590356809902,,,99,2023-07-19_15h14.19.574,FishGame,2023.1.3,60.00231476582956,
1condition/trialsB3.xlsx,"C3 B3- 13,7: (321),(132)",5,stimuli/bead_g.PNG,stimuli/bead_y.PNG,stimuli/bead_g.PNG,stimuli/bead_g.PNG,stimuli/bead_g.PNG,2,3,right,0,4,4,2,0,4,4,4,,,,,,,247.20064524299232,248.65856611501658,248.65856611501658,248.70864660001826,right,0.5389763420680538,None,1,1.5,249.210171232,,,99,2023-07-19_15h14.19.574,FishGame,2023.1.3,60.00231476582956,
1condition/trialsB3.xlsx,"C3 B3- 13,7: (321),(132)",6,stimuli/bead_y.PNG,stimuli/bead_g.PNG,stimuli/bead_y.PNG,stimuli/bead_g.PNG,stimuli/bead_g.PNG,2,3,right,0,4,4,2,0,5,5,5,,,,,,,249.75296350498684,250.2094920349773,250.2094920349773,250.25959948298987,right,0.7701567710610107,None,1,0.5,250.9944209550158,,,99,2023-07-19_15h14.19.574,FishGame,2023.1.3,60.00231476582956,
1condition/trialsB3.xlsx,"C3 B3- 13,7: (321),(132)",7,stimuli/bead_g.PNG,stimuli/bead_y.PNG,stimuli/bead_g.PNG,stimuli/bead_y.PNG,stimuli/bead_g.PNG,2,3,right,0,4,4,2,0,6,6,6,,,,,,,251.53795590397203,252.99443321401486,252.99443321401486,253.04468092299066,right,0.5076681930222549,None,1,1.5,253.5124696890125,,,99,2023-07-19_15h14.19.574,FishGame,2023.1.3,60.00231476582956,
1condition/trialsB3.xlsx,"C3 B3- 13,7: (321),(132)",8,stimuli/bead_g.PNG,stimuli/bead_g.PNG,stimuli/bead_y.PNG,stimuli/bead_g.PNG,stimuli/bead_y.PNG,2,3,right,0,4,4,2,0,7,7,7,,,,,,,254.05496053700335,254.51178398099728,254.51178398099728,254.56176876596874,right,0.8743989240028895,None,1,0.5,255.39685745502356,,,99,2023-07-19_15h14.19.574,FishGame,2023.1.3,60.00231476582956,
1condition/trialsB3.xlsx,"C3 B3- 13,7: (321),(132)",9,stimuli/bead_g.PNG,stimuli/bead_g.PNG,stimuli/bead_g.PNG,stimuli/bead_y.PNG,stimuli/bead_g.PNG,2,3,right,0,4,4,2,0,8,8,8,,,,,,,255.9384324749699,256.89653755899053,256.89653755899053,256.9466242819908,right,0.40826677897712216,None,1,1.0,257.31461341201793,,,99,2023-07-19_15h14.19.574,FishGame,2023.1.3,60.00231476582956,
1condition/trialsB3.xlsx,"C3 B3- 13,7: (321),(132)",10,stimuli/bead_b.PNG,stimuli/bead_g.PNG,stimuli/bead_g.PNG,stimuli/bead_g.PNG,stimuli/bead_y.PNG,2,3,right,0,4,4,2,0,9,9,9,,,,,,,257.85748995200265,258.31396506301826,258.31396506301826,258.36393061699346,right,0.7151603880338371,None,1,0.5,259.0328967910027,,,99,2023-07-19_15h14.19.574,FishGame,2023.1.3,60.00231476582956,
1condition/trialsB3.xlsx,"C3 B3- 13,7: (321),(132)",11,stimuli/bead_g.PNG,stimuli/bead_b.PNG,stimuli/bead_g.PNG,stimuli/bead_g.PNG,stimuli/bead_g.PNG,2,3,right,0,4,4,2,0,10,10,10,,,,,,,259.5753572899848,260.5319086689851,260.5319086689851,260.5820908640162,right,0.3283097050152719,None,1,1.0,260.8669600489666,,,99,2023-07-19_15h14.19.574,FishGame,2023.1.3,60.00231476582956,
1condition/trialsB3.xlsx,"C3 B3- 13,7: (321),(132)",12,stimuli/bead_g.PNG,stimuli/bead_g.PNG,stimuli/bead_b.PNG,stimuli/bead_g.PNG,stimuli/bead_g.PNG,2,3,right,0,4,4,2,0,11,11,11,,,,,,,261.40851929801283,262.8666140739806,262.8666140739806,262.91654344601557,right,0.379373450006824,None,1,1.5,263.25223459198605,,,99,2023-07-19_15h14.19.574,FishGame,2023.1.3,60.00231476582956,
1condition/trialsB3.xlsx,"C3 B3- 13,7: (321),(132)",13,stimuli/bead_g.PNG,stimuli/bead_g.PNG,stimuli/bead_g.PNG,stimuli/bead_b.PNG,stimuli/bead_g.PNG,2,3,right,0,4,4,2,0,12,12,12,,,,,,,263.79321287199855,265.2520859640208,265.2520859640208,265.30135403800523,right,0.36488842603284866,None,1,1.5,265.62008980097016,,,99,2023-07-19_15h14.19.574,FishGame,2023.1.3,60.00231476582956,
1condition/trialsB3.xlsx,"C3 B3- 13,7: (321),(132)",14,stimuli/bead_b.PNG,stimuli/bead_g.PNG,stimuli/bead_g.PNG,stimuli/bead_g.PNG,stimuli/bead_b.PNG,0,1,left,0,4,4,2,0,13,13,13,,,,,,,266.16190744302,267.61968308198266,267.61968308198266,267.6698265139712,right,0.5831096890615299,None,0,1.5,268.20511199202156,,,99,2023-07-19_15h14.19.574,FishGame,2023.1.3,60.00231476582956,
1condition/trialsB3.xlsx,"C3 B3- 13,7: (321),(132)",15,stimuli/bead_b.PNG,stimuli/bead_b.PNG,stimuli/bead_g.PNG,stimuli/bead_g.PNG,stimuli/bead_g.PNG,0,1,left,0,4,4,2,0,14,14,14,,,,,,,268.74721669999417,269.22055966599146,269.22055966599146,269.25374997296603,left,1.0572937590186484,None,1,0.5,270.2890615389915,,,99,2023-07-19_15h14.19.574,FishGame,2023.1.3,60.00231476582956,
1condition/trialsB3.xlsx,"C3 B3- 13,7: (321),(132)",16,stimuli/bead_b.PNG,stimuli/bead_b.PNG,stimuli/bead_b.PNG,stimuli/bead_g.PNG,stimuli/bead_g.PNG,0,1,left,0,4,4,2,0,15,15,15,,,,,,,270.8311837579822,271.7881991880131,271.7881991880131,271.83828124497086,left,0.41610878298524767,None,1,1.0,272.2068344799918,,,99,2023-07-19_15h14.19.574,FishGame,2023.1.3,60.00231476582956,
1condition/trialsB3.xlsx,"C3 B3- 13,7: (321),(132)",17,stimuli/bead_g.PNG,stimuli/bead_b.PNG,stimuli/bead_b.PNG,stimuli/bead_b.PNG,stimuli/bead_g.PNG,0,1,left,0,4,4,2,0,16,16,16,,,,,,,272.74988963396754,273.70591705298284,273.70591705298284,273.75601294101216,left,0.474809407023713,None,1,1.0,274.19097325002076,,,99,2023-07-19_15h14.19.574,FishGame,2023.1.3,60.00231476582956,
1condition/trialsB3.xlsx,"C3 B3- 13,7: (321),(132)",18,stimuli/bead_b.PNG,stimuli/bead_g.PNG,stimuli/bead_b.PNG,stimuli/bead_b.PNG,stimuli/bead_b.PNG,0,1,left,0,4,4,2,0,17,17,17,,,,,,,274.73555018997286,275.19009580201237,275.19009580201237,275.2402428659843,left,0.4925904549891129,None,1,0.5,275.6918872629758,,,99,2023-07-19_15h14.19.574,FishGame,2023.1.3,60.00231476582956,
1condition/trialsB3.xlsx,"C3 B3- 13,7: (321),(132)",19,stimuli/bead_g.PNG,stimuli/bead_b.PNG,stimuli/bead_g.PNG,stimuli/bead_b.PNG,stimuli/bead_b.PNG,0,1,left,0,4,4,2,0,18,18,18,,,,,,,276.2362784729921,277.6915184080135,277.6915184080135,277.7415693899966,left,0.39469819801161066,None,1,1.5,278.09298336697975,,,99,2023-07-19_15h14.19.574,FishGame,2023.1.3,60.00231476582956,
1condition/trialsB3.xlsx,"C3 B3- 13,7: (321),(132)",20,stimuli/bead_b.PNG,stimuli/bead_g.PNG,stimuli/bead_b.PNG,stimuli/bead_g.PNG,stimuli/bead_b.PNG,0,1,left,0,4,4,2,0,19,19,19,,,,,,,278.63739533897024,279.0921344750095,279.0921344750095,279.1425202920218,left,0.42701322701759636,None,1,0.5,279.52731163601857,,,99,2023-07-19_15h14.19.574,FishGame,2023.1.3,60.00231476582956,
1condition/trialsB2.xlsx,"C2 B2- 10,10: (123),(312)",1,stimuli/bead_b.PNG,stimuli/blank.JPG,stimuli/blank.JPG,stimuli/blank.JPG,stimuli/blank.JPG,0,1,left,0,5,5,1,0,0,0,0,,,,,,,285.06707106297836,286.52974750701105,286.52974750701105,286.5801747040241,left,0.6652978080674075,None,1,1.5,287.19879466400016,280.05963264300954,,99,2023-07-19_15h14.19.574,FishGame,2023.1.3,60.00231476582956,
1condition/trialsB2.xlsx,"C2 B2- 10,10: (123),(312)",2,stimuli/bead_b.PNG,stimuli/bead_b.PNG,stimuli/blank.JPG,stimuli/blank.JPG,stimuli/blank.JPG,0,1,left,0,5,5,1,0,1,1,1,,,,,,,287.7369360739831,288.21414424001705,288.21414424001705,288.2474247450009,left,0.6181635970715433,None,1,0.5,288.8490609769942,,,99,2023-07-19_15h14.19.574,FishGame,2023.1.3,60.00231476582956,
1condition/trialsB2.xlsx,"C2 B2- 10,10: (123),(312)",3,stimuli/bead_b.PNG,stimuli/bead_b.PNG,stimuli/bead_b.PNG,stimuli/blank.JPG,stimuli/blank.JPG,0,1,left,0,5,5,1,0,2,2,2,,,,,,,289.3899248170201,289.84831182297785,289.84831182297785,289.89843840000685,left,0.5354630550718866,None,1,0.5,290.40006906801136,,,99,2023-07-19_15h14.19.574,FishGame,2023.1.3,60.00231476582956,
1condition/trialsB2.xlsx,"C2 B2- 10,10: (123),(312)",4,stimuli/bead_b.PNG,stimuli/bead_b.PNG,stimuli/bead_b.PNG,stimuli/bead_b.PNG,stimuli/blank.JPG,0,1,left,0,5,5,1,0,3,3,3,,,,,,,290.942592056992,291.89950396399945,291.89950396399945,291.9495410139789,left,0.4418532070121728,None,1,1.0,292.3510441710241,,,99,2023-07-19_15h14.19.574,FishGame,2023.1.3,60.00231476582956,
1condition/trialsB2.xlsx,"C2 B2- 10,10: (123),(312)",5,stimuli/bead_g.PNG,stimuli/bead_b.PNG,stimuli/bead_b.PNG,stimuli/bead_b.PNG,stimuli/bead_b.PNG,0,1,left,0,5,5,1,0,4,4,4,,,,,,,292.89541377400747,293.35045252001146,293.35045252001146,293.40033614396816,left,0.6172629010397941,None,1,0.5,293.9862608209951,,,99,2023-07-19_15h14.19.574,FishGame,2023.1.3,60.00231476582956,
1condition/trialsB2.xlsx,"C2 B2- 10,10: (123),(312)",6,stimuli/bead_b.PNG,stimuli/bead_g.PNG,stimuli/bead_b.PNG,stimuli/bead_b.PNG,stimuli/bead_b.PNG,0,1,left,0,5,5,1,0,5,5,5,,,,,,,294.53011955099646,295.50154754298273,295.50154754298273,295.53494329197565,left,0.43910356902051717,None,1,1.0,295.9533889410086,,,99,2023-07-19_15h14.19.574,FishGame,2023.1.3,60.00231476582956,
1condition/trialsB2.xlsx,"C2 B2- 10,10: (123),(312)",7,stimuli/bead_b.PNG,stimuli/bead_b.PNG,stimuli/bead_g.PNG,stimuli/bead_b.PNG,stimuli/bead_b.PNG,0,1,left,0,5,5,1,0,6,6,6,,,,,,,296.4982048929669,296.9521797319758,296.9521797319758,297.0028321860009,left,0.7045510290190578,None,1,0.5,297.6709424959845,,,99,2023-07-19_15h14.19.574,FishGame,2023.1.3,60.00231476582956,
1condition/trialsB2.xlsx,"C2 B2- 10,10: (123),(312)",8,stimuli/bead_b.PNG,stimuli/bead_b.PNG,stimuli/bead_b.PNG,stimuli/bead_g.PNG,stimuli/bead_b.PNG,0,1,left,0,5,5,1,0,7,7,7,,,,,,,298.21551134897163,298.6700386949815,298.6700386949815,298.7199908979819,left,0.4257536000222899,None,1,0.5,299.10507769702235,,,99,2023-07-19_15h14.19.574,FishGame,2023.1.3,60.00231476582956,
1condition/trialsB2.xlsx,"C2 B2- 10,10: (123),(312)",9,stimuli/bead_y.PNG,stimuli/bead_b.PNG,stimuli/bead_b.PNG,stimuli/bead_b.PNG,stimuli/bead_g.PNG,0,1,left,0,5,5,1,0,8,8,8,,,,,,,299.6485757770133,300.12072319100844,300.12072319100844,300.15399841597537,left,0.5167493770131841,None,1,0.5,300.639518114971,,,99,2023-07-19_15h14.19.574,FishGame,2023.1.3,60.00231476582956,
1condition/trialsB2.xlsx,"C2 B2- 10,10: (123),(312)",10,stimuli/bead_b.PNG,stimuli/bead_y.PNG,stimuli/bead_b.PNG,stimuli/bead_b.PNG,stimuli/bead_b.PNG,0,1,left,0,5,5,1,0,9,9,9,,,,,,,301.18440006300807,301.6549285899964,301.6549285899964,301.6883186660125,left,0.48827398603316396,None,1,0.5,302.1566655259812,,,99,2023-07-19_15h14.19.574,FishGame,2023.1.3,60.00231476582956,
1condition/trialsB2.xlsx,"C2 B2- 10,10: (123),(312)",11,stimuli/bead_y.PNG,stimuli/bead_b.PNG,stimuli/bead_y.PNG,stimuli/bead_b.PNG,stimuli/bead_b.PNG,1,2,down,0,5,5,1,0,10,10,10,,,,,,,302.7011646309984,303.1564248839859,303.1564248839859,303.2068247940042,left,0.5657328169909306,None,0,0.5,303.72454392601503,,,99,2023-07-19_15h14.19.574,FishGame,2023.1.3,60.00231476582956,
1condition/trialsB2.xlsx,"C2 B2- 10,10: (123),(312)",12,stimuli/bead_y.PNG,stimuli/bead_y.PNG,stimuli/bead_b.PNG,stimuli/bead_y.PNG,stimuli/bead_b.PNG,1,2,down,0,5,5,1,0,11,11,11,,,,,,,304.26912549801636,305.72395338700153,305.72395338700153,305.7739931169781,left,0.3544244089862332,None,0,1.5,306.0918952730135,,,99,2023-07-19_15h14.19.574,FishGame,2023.1.3,60.00231476582956,
1condition/trialsB2.xlsx,"C2 B2- 10,10: (123),(312)",13,stimuli/bead_b.PNG,stimuli/bead_y.PNG,stimuli/bead_y.PNG,stimuli/bead_b.PNG,stimuli/bead_y.PNG,1,2,down,0,5,5,1,0,12,12,12,,,,,,,306.6366113660042,307.59195525798714,307.59195525798714,307.6417429979774,left,0.7327743369969539,None,0,1.0,308.3271211539977,,,99,2023-07-19_15h14.19.574,FishGame,2023.1.3,60.00231476582956,
1condition/trialsB2.xlsx,"C2 B2- 10,10: (123),(312)",14,stimuli/bead_y.PNG,stimuli/bead_b.PNG,stimuli/bead_y.PNG,stimuli/bead_y.PNG,stimuli/bead_b.PNG,1,2,down,0,5,5,1,0,13,13,13,,,,,,,308.8707405839814,310.3264594639768,310.3264594639768,310.3764428209979,down,0.4473114600405097,None,1,1.5,310.7785359189729,,,99,2023-07-19_15h14.19.574,FishGame,2023.1.3,60.00231476582956,
1condition/trialsB2.xlsx,"C2 B2- 10,10: (123),(312)",15,stimuli/bead_y.PNG,stimuli/bead_y.PNG,stimuli/bead_b.PNG,stimuli/bead_y.PNG,stimuli/bead_y.PNG,1,2,down,0,5,5,1,0,14,14,14,,,,,,,311.32051765400684,312.7777784559876,312.7777784559876,312.8278287060093,down,0.45936281798640266,None,1,1.5,313.2461524399696,,,99,2023-07-19_15h14.19.574,FishGame,2023.1.3,60.00231476582956,
1condition/trialsB2.xlsx,"C2 B2- 10,10: (123),(312)",16,stimuli/bead_g.PNG,stimuli/bead_y.PNG,stimuli/bead_y.PNG,stimuli/bead_b.PNG,stimuli/bead_y.PNG,1,2,down,0,5,5,1,0,15,15,15,,,,,,,313.78924063796876,314.74561601300957,314.74561601300957,314.7956891210051,down,0.6595365890534595,None,1,1.0,315.4140450669802,,,99,2023-07-19_15h14.19.574,FishGame,2023.1.3,60.00231476582956,
1condition/trialsB2.xlsx,"C2 B2- 10,10: (123),(312)",17,stimuli/bead_y.PNG,stimuli/bead_g.PNG,stimuli/bead_y.PNG,stimuli/bead_y.PNG,stimuli/bead_b.PNG,1,2,down,0,5,5,1,0,16,16,16,,,,,,,315.9581481430214,316.91357213497395,316.91357213497395,316.96353884600103,down,0.42737298202700913,None,1,1.0,317.3486044090241,,,99,2023-07-19_15h14.19.574,FishGame,2023.1.3,60.00231476582956,
1condition/trialsB2.xlsx,"C2 B2- 10,10: (123),(312)",18,stimuli/bead_y.PNG,stimuli/bead_y.PNG,stimuli/bead_g.PNG,stimuli/bead_y.PNG,stimuli/bead_y.PNG,1,2,down,0,5,5,1,0,17,17,17,,,,,,,317.89125471701846,319.3481846830109,319.3481846830109,319.3982353520114,down,0.35266771499300376,None,1,1.5,319.7164726139745,,,99,2023-07-19_15h14.19.574,FishGame,2023.1.3,60.00231476582956,
1condition/trialsB2.xlsx,"C2 B2- 10,10: (123),(312)",19,stimuli/bead_y.PNG,stimuli/bead_y.PNG,stimuli/bead_y.PNG,stimuli/bead_g.PNG,stimuli/bead_y.PNG,1,2,down,0,5,5,1,0,18,18,18,,,,,,,320.2589840099681,321.71624773798976,321.71624773798976,321.76630304701393,down,0.8284565550275147,None,1,1.5,322.5519713649992,,,99,2023-07-19_15h14.19.574,FishGame,2023.1.3,60.00231476582956,
1condition/trialsB2.xlsx,"C2 B2- 10,10: (123),(312)",20,stimuli/bead_y.PNG,stimuli/bead_y.PNG,stimuli/bead_y.PNG,stimuli/bead_y.PNG,stimuli/bead_g.PNG,1,2,down,0,5,5,1,0,19,19,19,,,,,,,323.0960732999956,324.551407949999,324.551407949999,324.60109938000096,down,0.4518923810101114,None,1,1.5,325.01933562901104,,,99,2023-07-19_15h14.19.574,FishGame,2023.1.3,60.00231476582956,
,,,,,,,,,,,,,,,,,,,,,,,,,,,,,,,,,,,325.55172887601657,6,,,,,,
