trial,fish1_p,fish2_p,fish3_p,fish4_p,fish5_p,pond_p,pond_p2,pond_p3,condsFile,readyMsg,fish1,fish2,fish3,fish4,fish5,pond,pond2,pond3,prac_trials.thisRepN,prac_trials.thisTrialN,prac_trials.thisN,prac_trials.thisIndex,block.thisRepN,block.thisTrialN,block.thisN,block.thisIndex,trials.thisRepN,trials.thisTrialN,trials.thisN,trials.thisIndex,ins1_key.started,ins1_image.started,ins1_key.keys,ins1_key.rt,ins1_key.duration,text_2.started,ins2_key.started,text_3.started,ins3_key.started,box_show_2.started,F1_2.started,key_resp_2.started,box_show_2.stopped,key_resp_2.keys,key_resp_2.rt,key_resp_2.duration,fish_key_2.corr,Begin_txt.started,ExpStart_key.started,ExpStart_key.keys,ExpStart_key.rt,ExpStart_key.duration,box_show.started,F1.started,fish_key_button.started,box_show.stopped,fish_key_button.keys,fish_key_button.rt,fish_key_button.duration,fish_key.corr,fish_interval,key_time,breakStart_txt.started,participant,date,expName,psychopyVersion,frameRate,
,,,,,,,,,,,,,,,,,,,,,,,,,,,,,,,40.20722486299928,40.20722486299928,space,10.862561792018823,None,,,,,,,,,,,,,,,,,,,,,,,,,,,,,99,2023-07-21_14h53.44.789,FishGame,2023.1.3,60.94226689283567,
1,stimuli/bead_y.PNG,stimuli/blank.JPG,stimuli/blank.JPG,stimuli/blank.JPG,stimuli/blank.JPG,1,2,up,,,,,,,,,,,0,0,0,0,,,,,,,,,,,,,,51.110511147999205,51.110511147999205,63.157853749988135,63.157853749988135,65.73769714299124,66.65989981696475,66.65989981696475,66.74323940795148,up,2.2330268020159565,None,1,,,,,,,,,,,,,,,,,99,2023-07-21_14h53.44.789,FishGame,2023.1.3,60.94226689283567,
2,stimuli/bead_y.PNG,stimuli/bead_y.PNG,stimuli/blank.JPG,stimuli/blank.JPG,stimuli/blank.JPG,1,2,up,,,,,,,,,,,0,1,1,1,,,,,,,,,,,,,,,,,,69.73644636297831,70.71182582899928,70.71182582899928,70.74513546499657,up,0.41691622795769945,None,1,,,,,,,,,,,,,,,,,99,2023-07-21_14h53.44.789,FishGame,2023.1.3,60.94226689283567,
3,stimuli/bead_y.PNG,stimuli/bead_y.PNG,stimuli/bead_y.PNG,stimuli/blank.JPG,stimuli/blank.JPG,1,2,up,,,,,,,,,,,0,2,2,2,,,,,,,,,,,,,,,,,,71.97024158097338,72.44595570099773,72.44595570099773,72.47931939194677,up,0.46264196996344253,None,1,,,,,,,,,,,,,,,,,99,2023-07-21_14h53.44.789,FishGame,2023.1.3,60.94226689283567,
4,stimuli/bead_g.PNG,stimuli/bead_y.PNG,stimuli/bead_y.PNG,stimuli/bead_y.PNG,stimuli/blank.JPG,1,2,up,,,,,,,,,,,0,3,3,3,,,,,,,,,,,,,,,,,,73.75733961298829,74.23123597697122,74.23123597697122,74.2637847509468,up,0.7628322130185552,None,1,,,,,,,,,,,,,,,,,99,2023-07-21_14h53.44.789,FishGame,2023.1.3,60.94226689283567,
5,stimuli/bead_y.PNG,stimuli/bead_g.PNG,stimuli/bead_y.PNG,stimuli/bead_y.PNG,stimuli/bead_y.PNG,1,2,up,,,,,,,,,,,0,4,4,4,,,,,,,,,,,,,,,,,,75.86616512999171,76.79846948297927,76.79846948297927,76.86523633199977,up,0.38677171600284055,None,1,,,,,,,,,,,,,,,,,99,2023-07-21_14h53.44.789,FishGame,2023.1.3,60.94226689283567,
6,stimuli/bead_y.PNG,stimuli/bead_y.PNG,stimuli/bead_g.PNG,stimuli/bead_y.PNG,stimuli/bead_y.PNG,1,2,up,,,,,,,,,,,0,5,5,5,,,,,,,,,,,,,,,,,,78.04276683198987,78.51621302298736,78.51621302298736,78.54988966998644,up,0.4657048269873485,None,1,,,,,,,,,,,,,,,,,99,2023-07-21_14h53.44.789,FishGame,2023.1.3,60.94226689283567,
7,stimuli/bead_y.PNG,stimuli/bead_y.PNG,stimuli/bead_y.PNG,stimuli/bead_g.PNG,stimuli/bead_y.PNG,1,2,up,,,,,,,,,,,0,6,6,6,,,,,,,,,,,,,,,,,,79.82673707895447,81.30107100994792,81.30107100994792,81.33440527197672,up,0.4193395430338569,None,1,,,,,,,,,,,,,,,,,99,2023-07-21_14h53.44.789,FishGame,2023.1.3,60.94226689283567,
8,stimuli/bead_b.PNG,stimuli/bead_y.PNG,stimuli/bead_y.PNG,stimuli/bead_y.PNG,stimuli/bead_g.PNG,1,2,up,,,,,,,,,,,0,7,7,7,,,,,,,,,,,,,,,,,,82.58124012796907,83.53569804597646,83.53569804597646,83.58568324299995,up,0.7627771369880065,None,1,,,,,,,,,,,,,,,,,99,2023-07-21_14h53.44.789,FishGame,2023.1.3,60.94226689283567,
9,stimuli/bead_y.PNG,stimuli/bead_b.PNG,stimuli/bead_y.PNG,stimuli/bead_y.PNG,stimuli/bead_y.PNG,1,2,up,,,,,,,,,,,0,8,8,8,,,,,,,,,,,,,,,,,,85.14891857199837,85.60356783197494,85.60356783197494,85.65361112100072,up,0.5677697409992106,None,1,,,,,,,,,,,,,,,,,99,2023-07-21_14h53.44.789,FishGame,2023.1.3,60.94226689283567,
10,stimuli/bead_y.PNG,stimuli/bead_y.PNG,stimuli/bead_b.PNG,stimuli/bead_y.PNG,stimuli/bead_y.PNG,1,2,up,,,,,,,,,,,0,9,9,9,,,,,,,,,,,,,,,,,,87.03176015400095,87.48798266798258,87.48798266798258,87.53793585597305,up,0.8200780809856951,None,1,,,,,,,,,,,,,,,,,99,2023-07-21_14h53.44.789,FishGame,2023.1.3,60.94226689283567,
11,stimuli/bead_g.PNG,stimuli/bead_y.PNG,stimuli/bead_y.PNG,stimuli/bead_b.PNG,stimuli/bead_y.PNG,2,3,right,,,,,,,,,,,0,10,10,10,,,,,,,,,,,,,,,,,,89.16916303796461,90.62308335700072,90.62308335700072,90.67304032796528,up,0.8674252020427957,None,0,,,,,,,,,,,,,,,,,99,2023-07-21_14h53.44.789,FishGame,2023.1.3,60.94226689283567,
12,stimuli/bead_g.PNG,stimuli/bead_g.PNG,stimuli/bead_y.PNG,stimuli/bead_y.PNG,stimuli/bead_b.PNG,2,3,right,,,,,,,,,,,0,11,11,11,,,,,,,,,,,,,,,,,,92.35267365397885,93.30785786395427,93.30785786395427,93.35762485698797,right,0.40454950398998335,None,1,,,,,,,,,,,,,,,,,99,2023-07-21_14h53.44.789,FishGame,2023.1.3,60.94226689283567,
13,stimuli/bead_b.PNG,stimuli/bead_g.PNG,stimuli/bead_g.PNG,stimuli/bead_y.PNG,stimuli/bead_y.PNG,2,3,right,,,,,,,,,,,0,12,12,12,,,,,,,,,,,,,,,,,,94.57055386400316,96.02638584497618,96.02638584497618,96.0764343229821,right,0.632352398999501,None,1,,,,,,,,,,,,,,,,,99,2023-07-21_14h53.44.789,FishGame,2023.1.3,60.94226689283567,
14,stimuli/bead_g.PNG,stimuli/bead_b.PNG,stimuli/bead_g.PNG,stimuli/bead_g.PNG,stimuli/bead_y.PNG,2,3,right,,,,,,,,,,,0,13,13,13,,,,,,,,,,,,,,,,,,97.504657628946,98.96087498898851,98.96087498898851,99.01115368196042,right,0.483007930975873,None,1,,,,,,,,,,,,,,,,,99,2023-07-21_14h53.44.789,FishGame,2023.1.3,60.94226689283567,
15,stimuli/bead_y.PNG,stimuli/bead_g.PNG,stimuli/bead_b.PNG,stimuli/bead_g.PNG,stimuli/bead_g.PNG,2,3,right,,,,,,,,,,,0,14,14,14,,,,,,,,,,,,,,,,,,100.28987563098781,101.74576160596916,101.74576160596916,101.79573315900052,right,0.3649257550132461,None,1,,,,,,,,,,,,,,,,,99,2023-07-21_14h53.44.789,FishGame,2023.1.3,60.94226689283567,
16,stimuli/bead_g.PNG,stimuli/bead_y.PNG,stimuli/bead_g.PNG,stimuli/bead_b.PNG,stimuli/bead_g.PNG,2,3,right,,,,,,,,,,,0,15,15,15,,,,,,,,,,,,,,,,,,102.95792783098295,103.91409708600258,103.91409708600258,103.9637711480027,right,0.43925913801649585,None,1,,,,,,,,,,,,,,,,,99,2023-07-21_14h53.44.789,FishGame,2023.1.3,60.94226689283567,
17,stimuli/bead_g.PNG,stimuli/bead_g.PNG,stimuli/bead_y.PNG,stimuli/bead_g.PNG,stimuli/bead_b.PNG,2,3,right,,,,,,,,,,,0,16,16,16,,,,,,,,,,,,,,,,,,105.21552560594864,106.16495099395979,106.16495099395979,106.21578775299713,right,0.8139893680345267,None,1,,,,,,,,,,,,,,,,,99,2023-07-21_14h53.44.789,FishGame,2023.1.3,60.94226689283567,
18,stimuli/bead_g.PNG,stimuli/bead_g.PNG,stimuli/bead_g.PNG,stimuli/bead_y.PNG,stimuli/bead_g.PNG,2,3,right,,,,,,,,,,,0,17,17,17,,,,,,,,,,,,,,,,,,107.82569575298112,109.28363715996966,109.28363715996966,109.33376571297413,right,0.9510328150354326,None,1,,,,,,,,,,,,,,,,,99,2023-07-21_14h53.44.789,FishGame,2023.1.3,60.94226689283567,
19,stimuli/bead_g.PNG,stimuli/bead_g.PNG,stimuli/bead_g.PNG,stimuli/bead_g.PNG,stimuli/bead_y.PNG,2,3,right,,,,,,,,,,,0,18,18,18,,,,,,,,,,,,,,,,,,111.09415928699309,111.56805358600104,111.56805358600104,111.60140708496328,right,0.802839998039417,None,1,,,,,,,,,,,,,,,,,99,2023-07-21_14h53.44.789,FishGame,2023.1.3,60.94226689283567,
20,stimuli/bead_b.PNG,stimuli/bead_g.PNG,stimuli/bead_g.PNG,stimuli/bead_g.PNG,stimuli/bead_g.PNG,2,3,right,,,,,,,,,,,0,19,19,19,,,,,,,,,,,,,,,,,,113.23184304195456,114.18629090796458,114.18629090796458,114.23617187596392,right,0.7724362660082988,None,1,,,,,,,,,,,,,,,,,99,2023-07-21_14h53.44.789,FishGame,2023.1.3,60.94226689283567,
,,,,,,,,,,,,,,,,,,,,,,,,,,,,,,,,,,,,,,,,,,,,,,,,115.80457837699214,115.80457837699214,space,2.8849917920306325,None,,,,,,,,,,,,99,2023-07-21_14h53.44.789,FishGame,2023.1.3,60.94226689283567,
1,,,,,,,,,1condition/trialsB3.xlsx,"C3 B3- 13,7: (321),(132)",stimuli/bead_g.PNG,stimuli/blank.JPG,stimuli/blank.JPG,stimuli/blank.JPG,stimuli/blank.JPG,2,3,right,,,,,0,0,0,2,0,0,0,0,,,,,,,,,,,,,,,,,,,,,,,118.76613859494682,119.7226462319959,119.7226462319959,119.77271709596971,right,0.7149840249912813,None,1,1.0,120.44176764797885,,99,2023-07-21_14h53.44.789,FishGame,2023.1.3,60.94226689283567,
2,,,,,,,,,1condition/trialsB3.xlsx,"C3 B3- 13,7: (321),(132)",stimuli/bead_g.PNG,stimuli/bead_g.PNG,stimuli/blank.JPG,stimuli/blank.JPG,stimuli/blank.JPG,2,3,right,,,,,0,0,0,2,0,1,1,1,,,,,,,,,,,,,,,,,,,,,,,120.9797333519673,121.95727440598421,121.95727440598421,121.9906299339491,right,0.5692597460001707,None,1,1.0,122.54229751200182,,99,2023-07-21_14h53.44.789,FishGame,2023.1.3,60.94226689283567,
3,,,,,,,,,1condition/trialsB3.xlsx,"C3 B3- 13,7: (321),(132)",stimuli/bead_g.PNG,stimuli/bead_g.PNG,stimuli/bead_g.PNG,stimuli/blank.JPG,stimuli/blank.JPG,2,3,right,,,,,0,0,0,2,0,2,2,2,,,,,,,,,,,,,,,,,,,,,,,123.08210839796811,123.54192925296957,123.54192925296957,123.5918792479788,right,0.5862964899861254,None,1,0.5,124.13415403396357,,99,2023-07-21_14h53.44.789,FishGame,2023.1.3,60.94226689283567,
4,,,,,,,,,1condition/trialsB3.xlsx,"C3 B3- 13,7: (321),(132)",stimuli/bead_y.PNG,stimuli/bead_g.PNG,stimuli/bead_g.PNG,stimuli/bead_g.PNG,stimuli/blank.JPG,2,3,right,,,,,0,0,0,2,0,3,3,3,,,,,,,,,,,,,,,,,,,,,,,124.66886697395239,125.14665571396472,125.14665571396472,125.17622586799553,right,0.6853807699517347,None,1,0.5,125.84491217398318,,99,2023-07-21_14h53.44.789,FishGame,2023.1.3,60.94226689283567,
5,,,,,,,,,1condition/trialsB3.xlsx,"C3 B3- 13,7: (321),(132)",stimuli/bead_g.PNG,stimuli/bead_y.PNG,stimuli/bead_g.PNG,stimuli/bead_g.PNG,stimuli/bead_g.PNG,2,3,right,,,,,0,0,0,2,0,4,4,4,,,,,,,,,,,,,,,,,,,,,,,126.38886233395897,126.85984702396672,126.85984702396672,126.8934166469844,right,0.5098886630148627,None,1,0.5,127.37832015095046,,99,2023-07-21_14h53.44.789,FishGame,2023.1.3,60.94226689283567,
6,,,,,,,,,1condition/trialsB3.xlsx,"C3 B3- 13,7: (321),(132)",stimuli/bead_y.PNG,stimuli/bead_g.PNG,stimuli/bead_y.PNG,stimuli/bead_g.PNG,stimuli/bead_g.PNG,2,3,right,,,,,0,0,0,2,0,5,5,5,,,,,,,,,,,,,,,,,,,,,,,127.92133786500199,128.37744450295577,128.37744450295577,128.42747424700065,right,0.44018235203111544,None,1,0.5,128.82923747296445,,99,2023-07-21_14h53.44.789,FishGame,2023.1.3,60.94226689283567,
7,,,,,,,,,1condition/trialsB3.xlsx,"C3 B3- 13,7: (321),(132)",stimuli/bead_g.PNG,stimuli/bead_y.PNG,stimuli/bead_g.PNG,stimuli/bead_y.PNG,stimuli/bead_g.PNG,2,3,right,,,,,0,0,0,2,0,6,6,6,,,,,,,,,,,,,,,,,,,,,,,129.3728006319725,130.82884261198342,130.82884261198342,130.87878326995997,right,0.4769184420001693,None,1,1.5,131.31385235500056,,99,2023-07-21_14h53.44.789,FishGame,2023.1.3,60.94226689283567,
8,,,,,,,,,1condition/trialsB3.xlsx,"C3 B3- 13,7: (321),(132)",stimuli/bead_g.PNG,stimuli/bead_g.PNG,stimuli/bead_y.PNG,stimuli/bead_g.PNG,stimuli/bead_y.PNG,2,3,right,,,,,0,0,0,2,0,7,7,7,,,,,,,,,,,,,,,,,,,,,,,131.8561585089774,132.8132479999913,132.8132479999913,132.86315199994715,right,0.47945761401206255,None,1,1.0,133.29852812195895,,99,2023-07-21_14h53.44.789,FishGame,2023.1.3,60.94226689283567,
9,,,,,,,,,1condition/trialsB3.xlsx,"C3 B3- 13,7: (321),(132)",stimuli/bead_g.PNG,stimuli/bead_g.PNG,stimuli/bead_g.PNG,stimuli/bead_y.PNG,stimuli/bead_g.PNG,2,3,right,,,,,0,0,0,2,0,8,8,8,,,,,,,,,,,,,,,,,,,,,,,133.84103603096446,134.79764976899605,134.79764976899605,134.8477565679932,right,0.5010031950077973,None,1,1.0,135.3160886009573,,99,2023-07-21_14h53.44.789,FishGame,2023.1.3,60.94226689283567,
10,,,,,,,,,1condition/trialsB3.xlsx,"C3 B3- 13,7: (321),(132)",stimuli/bead_b.PNG,stimuli/bead_g.PNG,stimuli/bead_g.PNG,stimuli/bead_g.PNG,stimuli/bead_y.PNG,2,3,right,,,,,0,0,0,2,0,9,9,9,,,,,,,,,,,,,,,,,,,,,,,135.86564309999812,136.31528872798663,136.31528872798663,136.3659225719748,right,0.7702730009914376,None,1,0.5,137.10050876397872,,99,2023-07-21_14h53.44.789,FishGame,2023.1.3,60.94226689283567,
11,,,,,,,,,1condition/trialsB3.xlsx,"C3 B3- 13,7: (321),(132)",stimuli/bead_g.PNG,stimuli/bead_b.PNG,stimuli/bead_g.PNG,stimuli/bead_g.PNG,stimuli/bead_g.PNG,2,3,right,,,,,0,0,0,2,0,10,10,10,,,,,,,,,,,,,,,,,,,,,,,137.64412461098982,138.099595845968,138.099595845968,138.1497105169692,right,0.5953271739999764,None,1,0.5,138.70197345595807,,99,2023-07-21_14h53.44.789,FishGame,2023.1.3,60.94226689283567,
12,,,,,,,,,1condition/trialsB3.xlsx,"C3 B3- 13,7: (321),(132)",stimuli/bead_g.PNG,stimuli/bead_g.PNG,stimuli/bead_b.PNG,stimuli/bead_g.PNG,stimuli/bead_g.PNG,2,3,right,,,,,0,0,0,2,0,11,11,11,,,,,,,,,,,,,,,,,,,,,,,139.24373437196482,140.2031165289809,140.2031165289809,140.25100865896093,right,1.5229021100094542,None,1,1.0,141.73628564696992,,99,2023-07-21_14h53.44.789,FishGame,2023.1.3,60.94226689283567,
13,,,,,,,,,1condition/trialsB3.xlsx,"C3 B3- 13,7: (321),(132)",stimuli/bead_g.PNG,stimuli/bead_g.PNG,stimuli/bead_g.PNG,stimuli/bead_b.PNG,stimuli/bead_g.PNG,2,3,right,,,,,0,0,0,2,0,12,12,12,,,,,,,,,,,,,,,,,,,,,,,142.27997046895325,142.7355181129533,142.7355181129533,142.78554441098822,right,0.4587503660004586,None,1,0.5,143.205390159972,,99,2023-07-21_14h53.44.789,FishGame,2023.1.3,60.94226689283567,
14,,,,,,,,,1condition/trialsB3.xlsx,"C3 B3- 13,7: (321),(132)",stimuli/bead_b.PNG,stimuli/bead_g.PNG,stimuli/bead_g.PNG,stimuli/bead_g.PNG,stimuli/bead_b.PNG,0,1,left,,,,,0,0,0,2,0,13,13,13,,,,,,,,,,,,,,,,,,,,,,,143.7478859029943,145.2199853109778,145.2199853109778,145.2536958999699,right,0.62746974802576,None,0,1.5,145.85551107500214,,99,2023-07-21_14h53.44.789,FishGame,2023.1.3,60.94226689283567,
15,,,,,,,,,1condition/trialsB3.xlsx,"C3 B3- 13,7: (321),(132)",stimuli/bead_b.PNG,stimuli/bead_b.PNG,stimuli/bead_g.PNG,stimuli/bead_g.PNG,stimuli/bead_g.PNG,0,1,left,,,,,0,0,0,2,0,14,14,14,,,,,,,,,,,,,,,,,,,,,,,146.39995327597717,147.35488060396165,147.35488060396165,147.40490667696577,right,0.850567621004302,None,0,1.0,148.20922472298844,,99,2023-07-21_14h53.44.789,FishGame,2023.1.3,60.94226689283567,
16,,,,,,,,,1condition/trialsB3.xlsx,"C3 B3- 13,7: (321),(132)",stimuli/bead_b.PNG,stimuli/bead_b.PNG,stimuli/bead_b.PNG,stimuli/bead_g.PNG,stimuli/bead_g.PNG,0,1,left,,,,,0,0,0,2,0,15,15,15,,,,,,,,,,,,,,,,,,,,,,,148.75015322398394,149.2223141589784,149.2223141589784,149.25592938199406,left,0.6130313490284607,None,1,0.5,149.84225201496156,,99,2023-07-21_14h53.44.789,FishGame,2023.1.3,60.94226689283567,
17,,,,,,,,,1condition/trialsB3.xlsx,"C3 B3- 13,7: (321),(132)",stimuli/bead_g.PNG,stimuli/bead_b.PNG,stimuli/bead_b.PNG,stimuli/bead_b.PNG,stimuli/bead_g.PNG,0,1,left,,,,,0,0,0,2,0,16,16,16,,,,,,,,,,,,,,,,,,,,,,,150.38554461998865,151.3567890979466,151.3567890979466,151.39005049096886,left,0.9242246100329794,None,1,1.0,152.2921596209635,,99,2023-07-21_14h53.44.789,FishGame,2023.1.3,60.94226689283567,
18,,,,,,,,,1condition/trialsB3.xlsx,"C3 B3- 13,7: (321),(132)",stimuli/bead_b.PNG,stimuli/bead_g.PNG,stimuli/bead_b.PNG,stimuli/bead_b.PNG,stimuli/bead_b.PNG,0,1,left,,,,,0,0,0,2,0,17,17,17,,,,,,,,,,,,,,,,,,,,,,,152.8400550399674,153.79244136397028,153.79244136397028,153.84236303897342,left,0.3989691319875419,None,1,1.0,154.19482497900026,,99,2023-07-21_14h53.44.789,FishGame,2023.1.3,60.94226689283567,
19,,,,,,,,,1condition/trialsB3.xlsx,"C3 B3- 13,7: (321),(132)",stimuli/bead_g.PNG,stimuli/bead_b.PNG,stimuli/bead_g.PNG,stimuli/bead_b.PNG,stimuli/bead_b.PNG,0,1,left,,,,,0,0,0,2,0,18,18,18,,,,,,,,,,,,,,,,,,,,,,,154.73886038997443,155.71031821198994,155.71031821198994,155.74332521198085,left,0.486130049044732,None,1,1.0,156.21357618499314,,99,2023-07-21_14h53.44.789,FishGame,2023.1.3,60.94226689283567,
20,,,,,,,,,1condition/trialsB3.xlsx,"C3 B3- 13,7: (321),(132)",stimuli/bead_b.PNG,stimuli/bead_g.PNG,stimuli/bead_b.PNG,stimuli/bead_g.PNG,stimuli/bead_b.PNG,0,1,left,,,,,0,0,0,2,0,19,19,19,,,,,,,,,,,,,,,,,,,,,,,156.7565728929476,157.22697528096614,157.22697528096614,157.26044496300165,left,0.41291752899996936,None,1,0.5,157.64537969999947,,99,2023-07-21_14h53.44.789,FishGame,2023.1.3,60.94226689283567,
,,,,,,,,,,,,,,,,,,,,,,,,,,,,,,,,,,,,,,,,,,,,,,,,,,,,,,,,,,,,,,,158.17745006998302,,,,,,
