welcome_key.keys,welcome_key.rt,welcome_key.duration,participant,date,expName,psychopyVersion,OS,frameRate,ins1_key.keys,ins1_key.rt,ins1_key.duration,key_resp_2.keys,key_resp_2.rt,key_resp_2.duration,fish_key_2.corr,prac_trials.thisRepN,prac_trials.thisTrialN,prac_trials.thisN,prac_trials.thisIndex,prac_trials.ran,trial,fish1_p,fish2_p,fish3_p,fish4_p,fish5_p,pond_p,pond_p2,pond_p3,ExpStart_key.keys,ExpStart_key.rt,ExpStart_key.duration,block number,block assignment,fish_key_button.keys,fish_key_button.rt,fish_key_button.duration,fish_key.corr,fish_interval,key_resp_time,trials.thisRepN,trials.thisTrialN,trials.thisN,trials.thisIndex,trials.ran,fish1,fish2,fish3,fish4,fish5,pond,pond2,pond3
right,3.7884,,a,2023-10-23_17h20.09.141,Fish_Game,2023.1.3,Win32,60.74227055,,,,,,,,,,,,,,,,,,,,,,,,,,,,,,,,,,,,,,,,,,,,,
,,,a,2023-10-23_17h20.09.141,Fish_Game,2023.1.3,Win32,60.74227055,,,,,,,,,,,,,,,,,,,,,,,,,,,,,,,,,,,,,,,,,,,,,
,,,a,2023-10-23_17h20.09.141,Fish_Game,2023.1.3,Win32,60.74227055,right,6.5158,,,,,,,,,,,,,,,,,,,,,,,,,,,,,,,,,,,,,,,,,,,
,,,a,2023-10-23_17h20.09.141,Fish_Game,2023.1.3,Win32,60.74227055,,,,,,,,,,,,,,,,,,,,,,,,,,,,,,,,,,,,,,,,,,,,,
,,,a,2023-10-23_17h20.09.141,Fish_Game,2023.1.3,Win32,60.74227055,,,,,,,,,,,,,,,,,,,,,,,,,,,,,,,,,,,,,,,,,,,,,
,,,a,2023-10-23_17h20.09.141,Fish_Game,2023.1.3,Win32,60.74227055,,,,right,3.2186,,0,0,0,0,0,1,1,stimuli/bead_b.PNG,stimuli/blank.jpg,stimuli/blank.jpg,stimuli/blank.jpg,stimuli/blank.jpg,0,1,left,,,,,,,,,,,,,,,,,,,,,,,,
,,,a,2023-10-23_17h20.09.141,Fish_Game,2023.1.3,Win32,60.74227055,,,,left,0.319,,1,0,1,1,1,1,2,stimuli/bead_b.PNG,stimuli/bead_b.PNG,stimuli/blank.jpg,stimuli/blank.jpg,stimuli/blank.jpg,0,1,left,,,,,,,,,,,,,,,,,,,,,,,,
,,,a,2023-10-23_17h20.09.141,Fish_Game,2023.1.3,Win32,60.74227055,,,,left,1.4654,,1,0,2,2,2,1,3,stimuli/bead_g.PNG,stimuli/bead_b.PNG,stimuli/bead_b.PNG,stimuli/blank.jpg,stimuli/blank.jpg,0,1,left,,,,,,,,,,,,,,,,,,,,,,,,
,,,a,2023-10-23_17h20.09.141,Fish_Game,2023.1.3,Win32,60.74227055,,,,left,1.5335,,1,0,3,3,3,1,4,stimuli/bead_b.PNG,stimuli/bead_g.PNG,stimuli/bead_b.PNG,stimuli/bead_b.PNG,stimuli/blank.jpg,0,1,left,,,,,,,,,,,,,,,,,,,,,,,,
,,,a,2023-10-23_17h20.09.141,Fish_Game,2023.1.3,Win32,60.74227055,,,,left,0.6239,,1,0,4,4,4,1,5,stimuli/bead_b.PNG,stimuli/bead_b.PNG,stimuli/bead_g.PNG,stimuli/bead_b.PNG,stimuli/bead_b.PNG,0,1,left,,,,,,,,,,,,,,,,,,,,,,,,
,,,a,2023-10-23_17h20.09.141,Fish_Game,2023.1.3,Win32,60.74227055,,,,up,0.9959,,0,0,5,5,5,1,6,stimuli/bead_y.PNG,stimuli/bead_b.PNG,stimuli/bead_b.PNG,stimuli/bead_g.PNG,stimuli/bead_b.PNG,0,1,left,,,,,,,,,,,,,,,,,,,,,,,,
,,,a,2023-10-23_17h20.09.141,Fish_Game,2023.1.3,Win32,60.74227055,,,,left,1.1038,,1,0,6,6,6,1,7,stimuli/bead_b.PNG,stimuli/bead_y.PNG,stimuli/bead_b.PNG,stimuli/bead_b.PNG,stimuli/bead_g.PNG,0,1,left,,,,,,,,,,,,,,,,,,,,,,,,
,,,a,2023-10-23_17h20.09.141,Fish_Game,2023.1.3,Win32,60.74227055,,,,left,0.9929,,0,0,7,7,7,1,8,stimuli/bead_y.PNG,stimuli/bead_b.PNG,stimuli/bead_y.PNG,stimuli/bead_b.PNG,stimuli/bead_b.PNG,1,2,up,,,,,,,,,,,,,,,,,,,,,,,,
,,,a,2023-10-23_17h20.09.141,Fish_Game,2023.1.3,Win32,60.74227055,,,,up,1.1271,,1,0,8,8,8,1,9,stimuli/bead_y.PNG,stimuli/bead_y.PNG,stimuli/bead_b.PNG,stimuli/bead_y.PNG,stimuli/bead_b.PNG,1,2,up,,,,,,,,,,,,,,,,,,,,,,,,
,,,a,2023-10-23_17h20.09.141,Fish_Game,2023.1.3,Win32,60.74227055,,,,up,0.717,,1,0,9,9,9,1,10,stimuli/bead_b.PNG,stimuli/bead_y.PNG,stimuli/bead_y.PNG,stimuli/bead_b.PNG,stimuli/bead_y.PNG,1,2,up,,,,,,,,,,,,,,,,,,,,,,,,
,,,a,2023-10-23_17h20.09.141,Fish_Game,2023.1.3,Win32,60.74227055,,,,up,1.181,,1,0,10,10,10,1,11,stimuli/bead_y.PNG,stimuli/bead_b.PNG,stimuli/bead_y.PNG,stimuli/bead_y.PNG,stimuli/bead_b.PNG,1,2,up,,,,,,,,,,,,,,,,,,,,,,,,
,,,a,2023-10-23_17h20.09.141,Fish_Game,2023.1.3,Win32,60.74227055,,,,up,0.6918,,1,0,11,11,11,1,12,stimuli/bead_y.PNG,stimuli/bead_y.PNG,stimuli/bead_b.PNG,stimuli/bead_y.PNG,stimuli/bead_y.PNG,1,2,up,,,,,,,,,,,,,,,,,,,,,,,,
,,,a,2023-10-23_17h20.09.141,Fish_Game,2023.1.3,Win32,60.74227055,,,,up,0.1935,,1,0,12,12,12,1,13,stimuli/bead_b.PNG,stimuli/bead_y.PNG,stimuli/bead_y.PNG,stimuli/bead_b.PNG,stimuli/bead_y.PNG,1,2,up,,,,,,,,,,,,,,,,,,,,,,,,
,,,a,2023-10-23_17h20.09.141,Fish_Game,2023.1.3,Win32,60.74227055,,,,left,0.118,,0,0,13,13,13,1,14,stimuli/bead_y.PNG,stimuli/bead_b.PNG,stimuli/bead_y.PNG,stimuli/bead_y.PNG,stimuli/bead_b.PNG,1,2,up,,,,,,,,,,,,,,,,,,,,,,,,
,,,a,2023-10-23_17h20.09.141,Fish_Game,2023.1.3,Win32,60.74227055,,,,up,1.0183,,1,0,14,14,14,1,15,stimuli/bead_y.PNG,stimuli/bead_y.PNG,stimuli/bead_b.PNG,stimuli/bead_y.PNG,stimuli/bead_y.PNG,1,2,up,,,,,,,,,,,,,,,,,,,,,,,,
,,,a,2023-10-23_17h20.09.141,Fish_Game,2023.1.3,Win32,60.74227055,,,,right,0.8175,,1,0,0,0,0,1,1,stimuli/bead_g.PNG,stimuli/blank.jpg,stimuli/blank.jpg,stimuli/blank.jpg,stimuli/blank.jpg,2,3,right,,,,,,,,,,,,,,,,,,,,,,,,
,,,a,2023-10-23_17h20.09.141,Fish_Game,2023.1.3,Win32,60.74227055,,,,right,0.4057,,1,0,1,1,1,1,2,stimuli/bead_g.PNG,stimuli/bead_g.PNG,stimuli/blank.jpg,stimuli/blank.jpg,stimuli/blank.jpg,2,3,right,,,,,,,,,,,,,,,,,,,,,,,,
,,,a,2023-10-23_17h20.09.141,Fish_Game,2023.1.3,Win32,60.74227055,,,,left,1.2233,0.0004,0,0,2,2,2,1,3,stimuli/bead_b.PNG,stimuli/bead_g.PNG,stimuli/bead_g.PNG,stimuli/blank.jpg,stimuli/blank.jpg,2,3,right,,,,,,,,,,,,,,,,,,,,,,,,
,,,a,2023-10-23_17h20.09.141,Fish_Game,2023.1.3,Win32,60.74227055,,,,right,1.768,0.0009,1,0,3,3,3,1,4,stimuli/bead_g.PNG,stimuli/bead_b.PNG,stimuli/bead_g.PNG,stimuli/bead_g.PNG,stimuli/blank.jpg,2,3,right,,,,,,,,,,,,,,,,,,,,,,,,
,,,a,2023-10-23_17h20.09.141,Fish_Game,2023.1.3,Win32,60.74227055,,,,left,0.9427,,0,0,4,4,4,1,5,stimuli/bead_b.PNG,stimuli/bead_g.PNG,stimuli/bead_b.PNG,stimuli/bead_g.PNG,stimuli/bead_g.PNG,2,3,right,,,,,,,,,,,,,,,,,,,,,,,,
,,,a,2023-10-23_17h20.09.141,Fish_Game,2023.1.3,Win32,60.74227055,,,,right,0.4071,,1,0,5,5,5,1,6,stimuli/bead_g.PNG,stimuli/bead_b.PNG,stimuli/bead_g.PNG,stimuli/bead_b.PNG,stimuli/bead_g.PNG,2,3,right,,,,,,,,,,,,,,,,,,,,,,,,
,,,a,2023-10-23_17h20.09.141,Fish_Game,2023.1.3,Win32,60.74227055,,,,right,0.6277,,1,0,6,6,6,1,7,stimuli/bead_g.PNG,stimuli/bead_g.PNG,stimuli/bead_b.PNG,stimuli/bead_g.PNG,stimuli/bead_b.PNG,2,3,right,,,,,,,,,,,,,,,,,,,,,,,,
,,,a,2023-10-23_17h20.09.141,Fish_Game,2023.1.3,Win32,60.74227055,,,,right,0.7947,,1,0,7,7,7,1,8,stimuli/bead_g.PNG,stimuli/bead_g.PNG,stimuli/bead_g.PNG,stimuli/bead_b.PNG,stimuli/bead_g.PNG,2,3,right,,,,,,,,,,,,,,,,,,,,,,,,
,,,a,2023-10-23_17h20.09.141,Fish_Game,2023.1.3,Win32,60.74227055,,,,right,2.1169,,0,0,8,8,8,1,9,stimuli/bead_y.PNG,stimuli/bead_g.PNG,stimuli/bead_g.PNG,stimuli/bead_g.PNG,stimuli/bead_b.PNG,1,2,up,,,,,,,,,,,,,,,,,,,,,,,,
,,,a,2023-10-23_17h20.09.141,Fish_Game,2023.1.3,Win32,60.74227055,,,,up,3.3037,,1,0,9,9,9,1,10,stimuli/bead_y.PNG,stimuli/bead_y.PNG,stimuli/bead_g.PNG,stimuli/bead_g.PNG,stimuli/bead_g.PNG,1,2,up,,,,,,,,,,,,,,,,,,,,,,,,
,,,a,2023-10-23_17h20.09.141,Fish_Game,2023.1.3,Win32,60.74227055,,,,up,2.4092,,1,0,10,10,10,1,11,stimuli/bead_y.PNG,stimuli/bead_y.PNG,stimuli/bead_y.PNG,stimuli/bead_g.PNG,stimuli/bead_g.PNG,1,2,up,,,,,,,,,,,,,,,,,,,,,,,,
,,,a,2023-10-23_17h20.09.141,Fish_Game,2023.1.3,Win32,60.74227055,,,,right,1.971,,0,0,11,11,11,1,12,stimuli/bead_g.PNG,stimuli/bead_y.PNG,stimuli/bead_y.PNG,stimuli/bead_y.PNG,stimuli/bead_g.PNG,1,2,up,,,,,,,,,,,,,,,,,,,,,,,,
,,,a,2023-10-23_17h20.09.141,Fish_Game,2023.1.3,Win32,60.74227055,,,,right,0.1664,,0,0,12,12,12,1,13,stimuli/bead_y.PNG,stimuli/bead_g.PNG,stimuli/bead_y.PNG,stimuli/bead_y.PNG,stimuli/bead_y.PNG,1,2,up,,,,,,,,,,,,,,,,,,,,,,,,
,,,a,2023-10-23_17h20.09.141,Fish_Game,2023.1.3,Win32,60.74227055,,,,up,0.9854,,1,0,13,13,13,1,14,stimuli/bead_y.PNG,stimuli/bead_y.PNG,stimuli/bead_g.PNG,stimuli/bead_y.PNG,stimuli/bead_y.PNG,1,2,up,,,,,,,,,,,,,,,,,,,,,,,,
,,,a,2023-10-23_17h20.09.141,Fish_Game,2023.1.3,Win32,60.74227055,,,,up,1.1726,,1,0,14,14,14,1,15,stimuli/bead_b.PNG,stimuli/bead_y.PNG,stimuli/bead_y.PNG,stimuli/bead_g.PNG,stimuli/bead_y.PNG,1,2,up,,,,,,,,,,,,,,,,,,,,,,,,
,,,a,2023-10-23_17h20.09.141,Fish_Game,2023.1.3,Win32,60.74227055,,,,,,,,,,,,,1,,,,,,,,,space,3.659,0.0007,1,1condition/mainTrials6.xlsx,left,0.0343,,0,1.5,229.4884,0,0,0,0,1,stimuli/bead_b.PNG,stimuli/blank.jpg,stimuli/blank.jpg,stimuli/blank.jpg,stimuli/blank.jpg,1,2,up
,,,a,2023-10-23_17h20.09.141,Fish_Game,2023.1.3,Win32,60.74227055,,,,,,,,,,,,,2,,,,,,,,,,,,,,up,1.985,,1,1.5,233.5041,0,1,1,1,1,stimuli/bead_y.PNG,stimuli/bead_b.PNG,stimuli/blank.jpg,stimuli/blank.jpg,stimuli/blank.jpg,1,2,up
,,,a,2023-10-23_17h20.09.141,Fish_Game,2023.1.3,Win32,60.74227055,,,,,,,,,,,,,3,,,,,,,,,,,,,,right,2.3333,,0,1,237.3713,0,2,2,2,1,stimuli/bead_y.PNG,stimuli/bead_y.PNG,stimuli/bead_b.PNG,stimuli/blank.jpg,stimuli/blank.jpg,1,2,up
,,,a,2023-10-23_17h20.09.141,Fish_Game,2023.1.3,Win32,60.74227055,,,,,,,,,,,,,4,,,,,,,,,,,,,,up,2.1718,,1,1,241.0726,0,3,3,3,1,stimuli/bead_y.PNG,stimuli/bead_y.PNG,stimuli/bead_y.PNG,stimuli/bead_b.PNG,stimuli/blank.jpg,1,2,up
,,,a,2023-10-23_17h20.09.141,Fish_Game,2023.1.3,Win32,60.74227055,,,,,,,,,,,,,5,,,,,,,,,,,,,,up,1.3183,,0,1.5,244.4278,0,4,4,4,1,stimuli/bead_g.PNG,stimuli/bead_y.PNG,stimuli/bead_y.PNG,stimuli/bead_y.PNG,stimuli/bead_b.PNG,2,3,right
,,,a,2023-10-23_17h20.09.141,Fish_Game,2023.1.3,Win32,60.74227055,,,,,,,,,,,,,6,,,,,,,,,,,,,,right,2.0217,,1,1,247.9713,0,5,5,5,1,stimuli/bead_g.PNG,stimuli/bead_g.PNG,stimuli/bead_y.PNG,stimuli/bead_y.PNG,stimuli/bead_y.PNG,2,3,right
,,,a,2023-10-23_17h20.09.141,Fish_Game,2023.1.3,Win32,60.74227055,,,,,,,,,,,,,7,,,,,,,,,,,,,,right,1.3147,,1,1.5,251.3237,0,6,6,6,1,stimuli/bead_y.PNG,stimuli/bead_g.PNG,stimuli/bead_g.PNG,stimuli/bead_y.PNG,stimuli/bead_y.PNG,2,3,right
,,,a,2023-10-23_17h20.09.141,Fish_Game,2023.1.3,Win32,60.74227055,,,,,,,,,,,,,8,,,,,,,,,,,,,,right,1.2381,,1,1,254.0868,0,7,7,7,1,stimuli/bead_g.PNG,stimuli/bead_y.PNG,stimuli/bead_g.PNG,stimuli/bead_g.PNG,stimuli/bead_y.PNG,2,3,right
,,,a,2023-10-23_17h20.09.141,Fish_Game,2023.1.3,Win32,60.74227055,,,,,,,,,,,,,9,,,,,,,,,,,,,,right,1.1838,,1,1.5,257.3043,0,8,8,8,1,stimuli/bead_g.PNG,stimuli/bead_g.PNG,stimuli/bead_y.PNG,stimuli/bead_g.PNG,stimuli/bead_g.PNG,2,3,right
,,,a,2023-10-23_17h20.09.141,Fish_Game,2023.1.3,Win32,60.74227055,,,,,,,,,,,,,10,,,,,,,,,,,,,,right,2.3928,,1,1,261.2203,0,9,9,9,1,stimuli/bead_g.PNG,stimuli/bead_g.PNG,stimuli/bead_g.PNG,stimuli/bead_y.PNG,stimuli/bead_g.PNG,2,3,right
,,,a,2023-10-23_17h20.09.141,Fish_Game,2023.1.3,Win32,60.74227055,,,,,,,,,,,,,11,,,,,,,,,,,,,,right,1.674,,0,1,264.4219,0,10,10,10,1,stimuli/bead_y.PNG,stimuli/bead_g.PNG,stimuli/bead_g.PNG,stimuli/bead_g.PNG,stimuli/bead_y.PNG,1,2,up
,,,a,2023-10-23_17h20.09.141,Fish_Game,2023.1.3,Win32,60.74227055,,,,,,,,,,,,,12,,,,,,,,,,,,,,right,1.9814,,0,0.5,267.4396,0,11,11,11,1,stimuli/bead_b.PNG,stimuli/bead_y.PNG,stimuli/bead_g.PNG,stimuli/bead_g.PNG,stimuli/bead_g.PNG,1,2,up
,,,a,2023-10-23_17h20.09.141,Fish_Game,2023.1.3,Win32,60.74227055,,,,,,,,,,,,,13,,,,,,,,,,,,,,up,1.3912,,1,1.5,270.8556,0,12,12,12,1,stimuli/bead_y.PNG,stimuli/bead_b.PNG,stimuli/bead_y.PNG,stimuli/bead_g.PNG,stimuli/bead_g.PNG,1,2,up
,,,a,2023-10-23_17h20.09.141,Fish_Game,2023.1.3,Win32,60.74227055,,,,,,,,,,,,,14,,,,,,,,,,,,,,up,0.8881,,1,1.5,273.7712,0,13,13,13,1,stimuli/bead_y.PNG,stimuli/bead_y.PNG,stimuli/bead_b.PNG,stimuli/bead_y.PNG,stimuli/bead_g.PNG,1,2,up
,,,a,2023-10-23_17h20.09.141,Fish_Game,2023.1.3,Win32,60.74227055,,,,,,,,,,,,,15,,,,,,,,,,,,,,up,1.0379,,1,1.5,276.838,0,14,14,14,1,stimuli/bead_y.PNG,stimuli/bead_y.PNG,stimuli/bead_y.PNG,stimuli/bead_b.PNG,stimuli/bead_y.PNG,1,2,up
,,,a,2023-10-23_17h20.09.141,Fish_Game,2023.1.3,Win32,60.74227055,,,,,,,,,,,,,1,,,,,,,,,,,,2,1condition/mainTrials7.xlsx,up,2.3088,,1,0.5,285.1868,0,0,0,0,1,stimuli/bead_y.PNG,stimuli/blank.jpg,stimuli/blank.jpg,stimuli/blank.jpg,stimuli/blank.jpg,1,2,up
,,,a,2023-10-23_17h20.09.141,Fish_Game,2023.1.3,Win32,60.74227055,,,,,,,,,,,,,2,,,,,,,,,,,,,,up,1.5488,,1,1.5,288.7692,0,1,1,1,1,stimuli/bead_y.PNG,stimuli/bead_y.PNG,stimuli/blank.jpg,stimuli/blank.jpg,stimuli/blank.jpg,1,2,up
,,,a,2023-10-23_17h20.09.141,Fish_Game,2023.1.3,Win32,60.74227055,,,,,,,,,,,,,3,,,,,,,,,,,,,,right,1.7954,,0,1,292.1042,0,2,2,2,1,stimuli/bead_g.PNG,stimuli/bead_y.PNG,stimuli/bead_y.PNG,stimuli/blank.jpg,stimuli/blank.jpg,1,2,up
,,,a,2023-10-23_17h20.09.141,Fish_Game,2023.1.3,Win32,60.74227055,,,,,,,,,,,,,4,,,,,,,,,,,,,,up,1.5355,,1,1.5,295.6611,0,3,3,3,1,stimuli/bead_y.PNG,stimuli/bead_g.PNG,stimuli/bead_y.PNG,stimuli/bead_y.PNG,stimuli/blank.jpg,1,2,up
,,,a,2023-10-23_17h20.09.141,Fish_Game,2023.1.3,Win32,60.74227055,,,,,,,,,,,,,5,,,,,,,,,,,,,,up,1.8863,,1,1.5,299.5769,0,4,4,4,1,stimuli/bead_y.PNG,stimuli/bead_y.PNG,stimuli/bead_g.PNG,stimuli/bead_y.PNG,stimuli/bead_y.PNG,1,2,up
,,,a,2023-10-23_17h20.09.141,Fish_Game,2023.1.3,Win32,60.74227055,,,,,,,,,,,,,6,,,,,,,,,,,,,,up,1.5277,,1,1,302.6102,0,5,5,5,1,stimuli/bead_y.PNG,stimuli/bead_y.PNG,stimuli/bead_y.PNG,stimuli/bead_g.PNG,stimuli/bead_y.PNG,1,2,up
,,,a,2023-10-23_17h20.09.141,Fish_Game,2023.1.3,Win32,60.74227055,,,,,,,,,,,,,7,,,,,,,,,,,,,,up,3.1687,,1,0.5,306.8106,0,6,6,6,1,stimuli/bead_b.PNG,stimuli/bead_y.PNG,stimuli/bead_y.PNG,stimuli/bead_y.PNG,stimuli/bead_g.PNG,1,2,up
,,,a,2023-10-23_17h20.09.141,Fish_Game,2023.1.3,Win32,60.74227055,,,,,,,,,,,,,8,,,,,,,,,,,,,,up,1.1532,,1,1,309.4862,0,7,7,7,1,stimuli/bead_y.PNG,stimuli/bead_b.PNG,stimuli/bead_y.PNG,stimuli/bead_y.PNG,stimuli/bead_y.PNG,1,2,up
,,,a,2023-10-23_17h20.09.141,Fish_Game,2023.1.3,Win32,60.74227055,,,,,,,,,,,,,9,,,,,,,,,,,,,,up,0.7039,,0,1.5,312.2202,0,8,8,8,1,stimuli/bead_y.PNG,stimuli/bead_y.PNG,stimuli/bead_b.PNG,stimuli/bead_y.PNG,stimuli/bead_y.PNG,1,2,right
,,,a,2023-10-23_17h20.09.141,Fish_Game,2023.1.3,Win32,60.74227055,,,,,,,,,,,,,10,,,,,,,,,,,,,,right,1.085,,1,1,314.8355,0,9,9,9,1,stimuli/bead_g.PNG,stimuli/bead_y.PNG,stimuli/bead_y.PNG,stimuli/bead_b.PNG,stimuli/bead_y.PNG,2,3,right
,,,a,2023-10-23_17h20.09.141,Fish_Game,2023.1.3,Win32,60.74227055,,,,,,,,,,,,,11,,,,,,,,,,,,,,right,1.051,,1,1,317.42,0,10,10,10,1,stimuli/bead_g.PNG,stimuli/bead_g.PNG,stimuli/bead_y.PNG,stimuli/bead_y.PNG,stimuli/bead_b.PNG,2,3,right
,,,a,2023-10-23_17h20.09.141,Fish_Game,2023.1.3,Win32,60.74227055,,,,,,,,,,,,,12,,,,,,,,,,,,,,right,1.3192,,1,1.5,320.7701,0,11,11,11,1,stimuli/bead_y.PNG,stimuli/bead_g.PNG,stimuli/bead_g.PNG,stimuli/bead_y.PNG,stimuli/bead_y.PNG,2,3,right
,,,a,2023-10-23_17h20.09.141,Fish_Game,2023.1.3,Win32,60.74227055,,,,,,,,,,,,,13,,,,,,,,,,,,,,right,0.8846,,1,1.5,323.6761,0,12,12,12,1,stimuli/bead_g.PNG,stimuli/bead_y.PNG,stimuli/bead_g.PNG,stimuli/bead_g.PNG,stimuli/bead_y.PNG,2,3,right
,,,a,2023-10-23_17h20.09.141,Fish_Game,2023.1.3,Win32,60.74227055,,,,,,,,,,,,,14,,,,,,,,,,,,,,right,1.3021,,1,1.5,327.0097,0,13,13,13,1,stimuli/bead_g.PNG,stimuli/bead_g.PNG,stimuli/bead_y.PNG,stimuli/bead_g.PNG,stimuli/bead_g.PNG,2,3,right
,,,a,2023-10-23_17h20.09.141,Fish_Game,2023.1.3,Win32,60.74227055,,,,,,,,,,,,,15,,,,,,,,,,,,,,right,0.4108,,1,1,328.943,0,14,14,14,1,stimuli/bead_g.PNG,stimuli/bead_g.PNG,stimuli/bead_g.PNG,stimuli/bead_y.PNG,stimuli/bead_g.PNG,2,3,right
,,,a,2023-10-23_17h20.09.141,Fish_Game,2023.1.3,Win32,60.74227055,,,,,,,,,,,,,1,,,,,,,,,,,,3,1condition/mainTrials8.xlsx,right,2.0979,,0,0.5,337.0883,0,0,0,0,1,stimuli/bead_y.PNG,stimuli/blank.jpg,stimuli/blank.jpg,stimuli/blank.jpg,stimuli/blank.jpg,0,1,left
,,,a,2023-10-23_17h20.09.141,Fish_Game,2023.1.3,Win32,60.74227055,,,,,,,,,,,,,2,,,,,,,,,,,,,,right,0.8029,,0,0.5,338.9017,0,1,1,1,1,stimuli/bead_b.PNG,stimuli/bead_y.PNG,stimuli/blank.jpg,stimuli/blank.jpg,stimuli/blank.jpg,0,1,left
,,,a,2023-10-23_17h20.09.141,Fish_Game,2023.1.3,Win32,60.74227055,,,,,,,,,,,,,3,,,,,,,,,,,,,,right,1.6054,,0,1.5,342.535,0,2,2,2,1,stimuli/bead_g.PNG,stimuli/bead_b.PNG,stimuli/bead_y.PNG,stimuli/blank.jpg,stimuli/blank.jpg,0,1,left
,,,a,2023-10-23_17h20.09.141,Fish_Game,2023.1.3,Win32,60.74227055,,,,,,,,,,,,,4,,,,,,,,,,,,,,right,1.8179,,0,1,345.8769,0,3,3,3,1,stimuli/bead_b.PNG,stimuli/bead_g.PNG,stimuli/bead_b.PNG,stimuli/bead_y.PNG,stimuli/blank.jpg,0,1,left
,,,a,2023-10-23_17h20.09.141,Fish_Game,2023.1.3,Win32,60.74227055,,,,,,,,,,,,,5,,,,,,,,,,,,,,left,1.9001,,1,1,349.2932,0,4,4,4,1,stimuli/bead_b.PNG,stimuli/bead_b.PNG,stimuli/bead_g.PNG,stimuli/bead_b.PNG,stimuli/bead_y.PNG,0,1,left
,,,a,2023-10-23_17h20.09.141,Fish_Game,2023.1.3,Win32,60.74227055,,,,,,,,,,,,,6,,,,,,,,,,,,,,left,0.6007,,1,1,351.4101,0,5,5,5,1,stimuli/bead_b.PNG,stimuli/bead_b.PNG,stimuli/bead_b.PNG,stimuli/bead_g.PNG,stimuli/bead_b.PNG,0,1,left
,,,a,2023-10-23_17h20.09.141,Fish_Game,2023.1.3,Win32,60.74227055,,,,,,,,,,,,,7,,,,,,,,,,,,,,left,0.9908,,1,0.5,353.4349,0,6,6,6,1,stimuli/bead_g.PNG,stimuli/bead_b.PNG,stimuli/bead_b.PNG,stimuli/bead_b.PNG,stimuli/bead_g.PNG,0,1,left
,,,a,2023-10-23_17h20.09.141,Fish_Game,2023.1.3,Win32,60.74227055,,,,,,,,,,,,,8,,,,,,,,,,,,,,left,0.7523,,1,1.5,356.2198,0,7,7,7,1,stimuli/bead_b.PNG,stimuli/bead_g.PNG,stimuli/bead_b.PNG,stimuli/bead_b.PNG,stimuli/bead_b.PNG,0,1,left
,,,a,2023-10-23_17h20.09.141,Fish_Game,2023.1.3,Win32,60.74227055,,,,,,,,,,,,,9,,,,,,,,,,,,,,left,0.9354,,1,0.5,358.1863,0,8,8,8,1,stimuli/bead_y.PNG,stimuli/bead_b.PNG,stimuli/bead_g.PNG,stimuli/bead_b.PNG,stimuli/bead_b.PNG,0,1,left
,,,a,2023-10-23_17h20.09.141,Fish_Game,2023.1.3,Win32,60.74227055,,,,,,,,,,,,,10,,,,,,,,,,,,,,left,1.3514,,1,1.5,361.5601,0,9,9,9,1,stimuli/bead_b.PNG,stimuli/bead_y.PNG,stimuli/bead_b.PNG,stimuli/bead_g.PNG,stimuli/bead_b.PNG,0,1,left
,,,a,2023-10-23_17h20.09.141,Fish_Game,2023.1.3,Win32,60.74227055,,,,,,,,,,,,,11,,,,,,,,,,,,,,left,0.6581,,1,1,363.7356,0,10,10,10,1,stimuli/bead_b.PNG,stimuli/bead_b.PNG,stimuli/bead_y.PNG,stimuli/bead_b.PNG,stimuli/bead_g.PNG,0,1,left
,,,a,2023-10-23_17h20.09.141,Fish_Game,2023.1.3,Win32,60.74227055,,,,,,,,,,,,,12,,,,,,,,,,,,,,left,0.958,,0,0.5,365.7185,0,11,11,11,1,stimuli/bead_y.PNG,stimuli/bead_b.PNG,stimuli/bead_b.PNG,stimuli/bead_y.PNG,stimuli/bead_b.PNG,1,2,up
,,,a,2023-10-23_17h20.09.141,Fish_Game,2023.1.3,Win32,60.74227055,,,,,,,,,,,,,13,,,,,,,,,,,,,,left,1.1479,,0,1,368.4061,0,12,12,12,1,stimuli/bead_y.PNG,stimuli/bead_y.PNG,stimuli/bead_b.PNG,stimuli/bead_b.PNG,stimuli/bead_y.PNG,1,2,up
,,,a,2023-10-23_17h20.09.141,Fish_Game,2023.1.3,Win32,60.74227055,,,,,,,,,,,,,14,,,,,,,,,,,,,,left,1.2496,,0,1.5,371.6746,0,13,13,13,1,stimuli/bead_y.PNG,stimuli/bead_y.PNG,stimuli/bead_y.PNG,stimuli/bead_b.PNG,stimuli/bead_b.PNG,1,2,up
,,,a,2023-10-23_17h20.09.141,Fish_Game,2023.1.3,Win32,60.74227055,,,,,,,,,,,,,15,,,,,,,,,,,,,,left,1.3341,,0,1,374.5423,0,14,14,14,1,stimuli/bead_g.PNG,stimuli/bead_y.PNG,stimuli/bead_y.PNG,stimuli/bead_y.PNG,stimuli/bead_b.PNG,1,2,up
,,,a,2023-10-23_17h20.09.141,Fish_Game,2023.1.3,Win32,60.74227055,,,,,,,,,,,,,1,,,,,,,,,,,,4,1condition/mainTrials1.xlsx,right,1.4545,,1,0.5,382.0353,0,0,0,0,1,stimuli/bead_g.PNG,stimuli/blank.jpg,stimuli/blank.jpg,stimuli/blank.jpg,stimuli/blank.jpg,2,3,right
,,,a,2023-10-23_17h20.09.141,Fish_Game,2023.1.3,Win32,60.74227055,,,,,,,,,,,,,2,,,,,,,,,,,,,,right,0.7007,,1,0.5,383.7689,0,1,1,1,1,stimuli/bead_y.PNG,stimuli/bead_g.PNG,stimuli/blank.jpg,stimuli/blank.jpg,stimuli/blank.jpg,2,3,right
,,,a,2023-10-23_17h20.09.141,Fish_Game,2023.1.3,Win32,60.74227055,,,,,,,,,,,,,3,,,,,,,,,,,,,,right,0.6494,0.0004,1,1.5,386.4527,0,2,2,2,1,stimuli/bead_g.PNG,stimuli/bead_y.PNG,stimuli/bead_g.PNG,stimuli/blank.jpg,stimuli/blank.jpg,2,3,right
,,,a,2023-10-23_17h20.09.141,Fish_Game,2023.1.3,Win32,60.74227055,,,,,,,,,,,,,4,,,,,,,,,,,,,,right,1.7145,,1,1,389.7022,0,3,3,3,1,stimuli/bead_b.PNG,stimuli/bead_g.PNG,stimuli/bead_y.PNG,stimuli/bead_g.PNG,stimuli/blank.jpg,2,3,right
,,,a,2023-10-23_17h20.09.141,Fish_Game,2023.1.3,Win32,60.74227055,,,,,,,,,,,,,5,,,,,,,,,,,,,,right,1.0665,,1,1,392.2851,0,4,4,4,1,stimuli/bead_g.PNG,stimuli/bead_b.PNG,stimuli/bead_g.PNG,stimuli/bead_y.PNG,stimuli/bead_g.PNG,2,3,right
,,,a,2023-10-23_17h20.09.141,Fish_Game,2023.1.3,Win32,60.74227055,,,,,,,,,,,,,6,,,,,,,,,,,,,,right,1.0577,,1,1.5,395.3678,0,5,5,5,1,stimuli/bead_g.PNG,stimuli/bead_g.PNG,stimuli/bead_b.PNG,stimuli/bead_g.PNG,stimuli/bead_y.PNG,2,3,right
,,,a,2023-10-23_17h20.09.141,Fish_Game,2023.1.3,Win32,60.74227055,,,,,,,,,,,,,7,,,,,,,,,,,,,,right,1.1366,,1,1,398.035,0,6,6,6,1,stimuli/bead_g.PNG,stimuli/bead_g.PNG,stimuli/bead_g.PNG,stimuli/bead_b.PNG,stimuli/bead_g.PNG,2,3,right
,,,a,2023-10-23_17h20.09.141,Fish_Game,2023.1.3,Win32,60.74227055,,,,,,,,,,,,,8,,,,,,,,,,,,,,right,1.071,,1,1,400.6338,0,7,7,7,1,stimuli/bead_g.PNG,stimuli/bead_g.PNG,stimuli/bead_g.PNG,stimuli/bead_g.PNG,stimuli/bead_b.PNG,2,3,right
,,,a,2023-10-23_17h20.09.141,Fish_Game,2023.1.3,Win32,60.74227055,,,,,,,,,,,,,9,,,,,,,,,,,,,,right,0.654,,1,1.5,403.3174,0,8,8,8,1,stimuli/bead_b.PNG,stimuli/bead_g.PNG,stimuli/bead_g.PNG,stimuli/bead_g.PNG,stimuli/bead_g.PNG,2,3,right
,,,a,2023-10-23_17h20.09.141,Fish_Game,2023.1.3,Win32,60.74227055,,,,,,,,,,,,,10,,,,,,,,,,,,,,right,0.4205,,1,1,405.252,0,9,9,9,1,stimuli/bead_g.PNG,stimuli/bead_b.PNG,stimuli/bead_g.PNG,stimuli/bead_g.PNG,stimuli/bead_g.PNG,2,3,right
,,,a,2023-10-23_17h20.09.141,Fish_Game,2023.1.3,Win32,60.74227055,,,,,,,,,,,,,11,,,,,,,,,,,,,,right,0.5432,,1,1.5,407.8173,0,10,10,10,1,stimuli/bead_g.PNG,stimuli/bead_g.PNG,stimuli/bead_b.PNG,stimuli/bead_g.PNG,stimuli/bead_g.PNG,2,3,right
,,,a,2023-10-23_17h20.09.141,Fish_Game,2023.1.3,Win32,60.74227055,,,,,,,,,,,,,12,,,,,,,,,,,,,,right,1.0193,,1,0.5,409.8681,0,11,11,11,1,stimuli/bead_g.PNG,stimuli/bead_g.PNG,stimuli/bead_g.PNG,stimuli/bead_b.PNG,stimuli/bead_g.PNG,2,3,right
,,,a,2023-10-23_17h20.09.141,Fish_Game,2023.1.3,Win32,60.74227055,,,,,,,,,,,,,13,,,,,,,,,,,,,,right,2.348,,0,0.5,413.2337,0,12,12,12,1,stimuli/bead_b.PNG,stimuli/bead_g.PNG,stimuli/bead_g.PNG,stimuli/bead_g.PNG,stimuli/bead_b.PNG,0,1,left
,,,a,2023-10-23_17h20.09.141,Fish_Game,2023.1.3,Win32,60.74227055,,,,,,,,,,,,,14,,,,,,,,,,,,,,right,0.699,,0,1.5,415.9521,0,13,13,13,1,stimuli/bead_b.PNG,stimuli/bead_b.PNG,stimuli/bead_g.PNG,stimuli/bead_g.PNG,stimuli/bead_g.PNG,0,1,left
,,,a,2023-10-23_17h20.09.141,Fish_Game,2023.1.3,Win32,60.74227055,,,,,,,,,,,,,15,,,,,,,,,,,,,,left,0.5033,,1,1.5,418.4849,0,14,14,14,1,stimuli/bead_b.PNG,stimuli/bead_b.PNG,stimuli/bead_b.PNG,stimuli/bead_g.PNG,stimuli/bead_g.PNG,0,1,left
,,,a,2023-10-23_17h20.09.141,Fish_Game,2023.1.3,Win32,60.74227055,,,,,,,,,,,,,1,,,,,,,,,,,,5,1condition/mainTrials2.xlsx,up,1.5326,,1,1,426.5677,0,0,0,0,1,stimuli/bead_y.PNG,stimuli/blank.jpg,stimuli/blank.jpg,stimuli/blank.jpg,stimuli/blank.jpg,1,2,up
,,,a,2023-10-23_17h20.09.141,Fish_Game,2023.1.3,Win32,60.74227055,,,,,,,,,,,,,2,,,,,,,,,,,,,,up,1.1401,,1,1,429.2336,0,1,1,1,1,stimuli/bead_b.PNG,stimuli/bead_y.PNG,stimuli/blank.jpg,stimuli/blank.jpg,stimuli/blank.jpg,1,2,up
,,,a,2023-10-23_17h20.09.141,Fish_Game,2023.1.3,Win32,60.74227055,,,,,,,,,,,,,3,,,,,,,,,,,,,,up,1.6897,,1,1.5,432.9502,0,2,2,2,1,stimuli/bead_y.PNG,stimuli/bead_b.PNG,stimuli/bead_y.PNG,stimuli/blank.jpg,stimuli/blank.jpg,1,2,up
,,,a,2023-10-23_17h20.09.141,Fish_Game,2023.1.3,Win32,60.74227055,,,,,,,,,,,,,4,,,,,,,,,,,,,,up,3.6565,,1,0.5,437.6338,0,3,3,3,1,stimuli/bead_y.PNG,stimuli/bead_y.PNG,stimuli/bead_b.PNG,stimuli/bead_y.PNG,stimuli/blank.jpg,1,2,up
,,,a,2023-10-23_17h20.09.141,Fish_Game,2023.1.3,Win32,60.74227055,,,,,,,,,,,,,5,,,,,,,,,,,,,,right,1.1192,,0,1.5,440.7831,0,4,4,4,1,stimuli/bead_g.PNG,stimuli/bead_y.PNG,stimuli/bead_y.PNG,stimuli/bead_b.PNG,stimuli/bead_y.PNG,1,2,up
,,,a,2023-10-23_17h20.09.141,Fish_Game,2023.1.3,Win32,60.74227055,,,,,,,,,,,,,6,,,,,,,,,,,,,,right,2.0677,,0,1.5,444.8768,0,5,5,5,1,stimuli/bead_y.PNG,stimuli/bead_g.PNG,stimuli/bead_y.PNG,stimuli/bead_y.PNG,stimuli/bead_b.PNG,1,2,up
,,,a,2023-10-23_17h20.09.141,Fish_Game,2023.1.3,Win32,60.74227055,,,,,,,,,,,,,7,,,,,,,,,,,,,,right,1.6674,,0,0.5,447.5672,0,6,6,6,1,stimuli/bead_b.PNG,stimuli/bead_y.PNG,stimuli/bead_g.PNG,stimuli/bead_y.PNG,stimuli/bead_y.PNG,0,1,left
,,,a,2023-10-23_17h20.09.141,Fish_Game,2023.1.3,Win32,60.74227055,,,,,,,,,,,,,8,,,,,,,,,,,,,,right,0.1735,,0,0.5,448.7665,0,7,7,7,1,stimuli/bead_b.PNG,stimuli/bead_b.PNG,stimuli/bead_y.PNG,stimuli/bead_g.PNG,stimuli/bead_y.PNG,0,1,left
,,,a,2023-10-23_17h20.09.141,Fish_Game,2023.1.3,Win32,60.74227055,,,,,,,,,,,,,9,,,,,,,,,,,,,,right,1.3982,,0,1,451.6837,0,8,8,8,1,stimuli/bead_y.PNG,stimuli/bead_b.PNG,stimuli/bead_b.PNG,stimuli/bead_y.PNG,stimuli/bead_g.PNG,0,1,left
,,,a,2023-10-23_17h20.09.141,Fish_Game,2023.1.3,Win32,60.74227055,,,,,,,,,,,,,10,,,,,,,,,,,,,,right,1.2725,,0,0.5,453.9665,0,9,9,9,1,stimuli/bead_b.PNG,stimuli/bead_y.PNG,stimuli/bead_b.PNG,stimuli/bead_b.PNG,stimuli/bead_y.PNG,0,1,left
,,,a,2023-10-23_17h20.09.141,Fish_Game,2023.1.3,Win32,60.74227055,,,,,,,,,,,,,11,,,,,,,,,,,,,,left,0.677,,1,1,456.1676,0,10,10,10,1,stimuli/bead_b.PNG,stimuli/bead_b.PNG,stimuli/bead_y.PNG,stimuli/bead_b.PNG,stimuli/bead_b.PNG,0,1,left
,,,a,2023-10-23_17h20.09.141,Fish_Game,2023.1.3,Win32,60.74227055,,,,,,,,,,,,,12,,,,,,,,,,,,,,left,0.667,,1,0.5,457.8669,0,11,11,11,1,stimuli/bead_b.PNG,stimuli/bead_b.PNG,stimuli/bead_b.PNG,stimuli/bead_y.PNG,stimuli/bead_b.PNG,0,1,left
,,,a,2023-10-23_17h20.09.141,Fish_Game,2023.1.3,Win32,60.74227055,,,,,,,,,,,,,13,,,,,,,,,,,,,,left,0.9196,,1,0.5,459.8176,0,12,12,12,1,stimuli/bead_g.PNG,stimuli/bead_b.PNG,stimuli/bead_b.PNG,stimuli/bead_b.PNG,stimuli/bead_y.PNG,0,1,left
,,,a,2023-10-23_17h20.09.141,Fish_Game,2023.1.3,Win32,60.74227055,,,,,,,,,,,,,14,,,,,,,,,,,,,,left,2.3325,,1,1,463.6839,0,13,13,13,1,stimuli/bead_b.PNG,stimuli/bead_g.PNG,stimuli/bead_b.PNG,stimuli/bead_b.PNG,stimuli/bead_b.PNG,0,1,left
,,,a,2023-10-23_17h20.09.141,Fish_Game,2023.1.3,Win32,60.74227055,,,,,,,,,,,,,15,,,,,,,,,,,,,,left,1.1754,,1,1,466.3839,0,14,14,14,1,stimuli/bead_b.PNG,stimuli/bead_b.PNG,stimuli/bead_g.PNG,stimuli/bead_b.PNG,stimuli/bead_b.PNG,0,1,left
,,,a,2023-10-23_17h20.09.141,Fish_Game,2023.1.3,Win32,60.74227055,,,,,,,,,,,,,1,,,,,,,,,,,,6,1condition/mainTrials4.xlsx,left,0.1977,,0,0.5,472.6326,0,0,0,0,1,stimuli/bead_g.PNG,stimuli/blank.jpg,stimuli/blank.jpg,stimuli/blank.jpg,stimuli/blank.jpg,2,3,right
,,,a,2023-10-23_17h20.09.141,Fish_Game,2023.1.3,Win32,60.74227055,,,,,,,,,,,,,2,,,,,,,,,,,,,,right,0.1682,,1,1,474.3337,0,1,1,1,1,stimuli/bead_g.PNG,stimuli/bead_g.PNG,stimuli/blank.jpg,stimuli/blank.jpg,stimuli/blank.jpg,2,3,right
,,,a,2023-10-23_17h20.09.141,Fish_Game,2023.1.3,Win32,60.74227055,,,,,,,,,,,,,3,,,,,,,,,,,,,,right,0.5839,,1,0.5,475.9325,0,2,2,2,1,stimuli/bead_b.PNG,stimuli/bead_g.PNG,stimuli/bead_g.PNG,stimuli/blank.jpg,stimuli/blank.jpg,2,3,right
,,,a,2023-10-23_17h20.09.141,Fish_Game,2023.1.3,Win32,60.74227055,,,,,,,,,,,,,4,,,,,,,,,,,,,,right,0.7703,,1,1,478.2157,0,3,3,3,1,stimuli/bead_g.PNG,stimuli/bead_b.PNG,stimuli/bead_g.PNG,stimuli/bead_g.PNG,stimuli/blank.jpg,2,3,right
,,,a,2023-10-23_17h20.09.141,Fish_Game,2023.1.3,Win32,60.74227055,,,,,,,,,,,,,5,,,,,,,,,,,,,,right,0.7326,,1,1.5,480.9823,0,4,4,4,1,stimuli/bead_g.PNG,stimuli/bead_g.PNG,stimuli/bead_b.PNG,stimuli/bead_g.PNG,stimuli/bead_g.PNG,2,3,right
,,,a,2023-10-23_17h20.09.141,Fish_Game,2023.1.3,Win32,60.74227055,,,,,,,,,,,,,6,,,,,,,,,,,,,,right,0.8872,,1,0.5,482.8997,0,5,5,5,1,stimuli/bead_y.PNG,stimuli/bead_g.PNG,stimuli/bead_g.PNG,stimuli/bead_b.PNG,stimuli/bead_g.PNG,2,3,right
,,,a,2023-10-23_17h20.09.141,Fish_Game,2023.1.3,Win32,60.74227055,,,,,,,,,,,,,7,,,,,,,,,,,,,,right,0.7493,0.0003,1,1,485.1831,0,6,6,6,1,stimuli/bead_g.PNG,stimuli/bead_y.PNG,stimuli/bead_g.PNG,stimuli/bead_g.PNG,stimuli/bead_b.PNG,2,3,right
,,,a,2023-10-23_17h20.09.141,Fish_Game,2023.1.3,Win32,60.74227055,,,,,,,,,,,,,8,,,,,,,,,,,,,,right,0.688,,0,1.5,487.8993,0,7,7,7,1,stimuli/bead_y.PNG,stimuli/bead_g.PNG,stimuli/bead_y.PNG,stimuli/bead_g.PNG,stimuli/bead_g.PNG,1,2,up
,,,a,2023-10-23_17h20.09.141,Fish_Game,2023.1.3,Win32,60.74227055,,,,,,,,,,,,,9,,,,,,,,,,,,,,right,2.1867,,0,0.5,491.1158,0,8,8,8,1,stimuli/bead_y.PNG,stimuli/bead_y.PNG,stimuli/bead_g.PNG,stimuli/bead_y.PNG,stimuli/bead_g.PNG,1,2,up
,,,a,2023-10-23_17h20.09.141,Fish_Game,2023.1.3,Win32,60.74227055,,,,,,,,,,,,,10,,,,,,,,,,,,,,right,1.0368,,0,0.5,493.1821,0,9,9,9,1,stimuli/bead_g.PNG,stimuli/bead_y.PNG,stimuli/bead_y.PNG,stimuli/bead_g.PNG,stimuli/bead_y.PNG,1,2,up
,,,a,2023-10-23_17h20.09.141,Fish_Game,2023.1.3,Win32,60.74227055,,,,,,,,,,,,,11,,,,,,,,,,,,,,up,0.6508,,1,1.5,495.8658,0,10,10,10,1,stimuli/bead_y.PNG,stimuli/bead_g.PNG,stimuli/bead_y.PNG,stimuli/bead_y.PNG,stimuli/bead_g.PNG,1,2,up
,,,a,2023-10-23_17h20.09.141,Fish_Game,2023.1.3,Win32,60.74227055,,,,,,,,,,,,,12,,,,,,,,,,,,,,up,0.6824,,1,0.5,497.5825,0,11,11,11,1,stimuli/bead_y.PNG,stimuli/bead_y.PNG,stimuli/bead_g.PNG,stimuli/bead_y.PNG,stimuli/bead_y.PNG,1,2,up
,,,a,2023-10-23_17h20.09.141,Fish_Game,2023.1.3,Win32,60.74227055,,,,,,,,,,,,,13,,,,,,,,,,,,,,up,0.7328,,1,1,499.85,0,12,12,12,1,stimuli/bead_b.PNG,stimuli/bead_y.PNG,stimuli/bead_y.PNG,stimuli/bead_g.PNG,stimuli/bead_y.PNG,1,2,up
,,,a,2023-10-23_17h20.09.141,Fish_Game,2023.1.3,Win32,60.74227055,,,,,,,,,,,,,14,,,,,,,,,,,,,,up,0.4675,,1,0.5,501.3492,0,13,13,13,1,stimuli/bead_y.PNG,stimuli/bead_b.PNG,stimuli/bead_y.PNG,stimuli/bead_y.PNG,stimuli/bead_g.PNG,1,2,up
,,,a,2023-10-23_17h20.09.141,Fish_Game,2023.1.3,Win32,60.74227055,,,,,,,,,,,,,15,,,,,,,,,,,,,,up,0.7846,,1,1.5,504.1663,0,14,14,14,1,stimuli/bead_y.PNG,stimuli/bead_y.PNG,stimuli/bead_b.PNG,stimuli/bead_y.PNG,stimuli/bead_y.PNG,1,2,up
,,,a,2023-10-23_17h20.09.141,Fish_Game,2023.1.3,Win32,60.74227055,,,,,,,,,,,,,1,,,,,,,,,,,,7,1condition/mainTrials3.xlsx,up,3.0689,,1,0.5,513.3329,0,0,0,0,1,stimuli/bead_y.PNG,stimuli/blank.jpg,stimuli/blank.jpg,stimuli/blank.jpg,stimuli/blank.jpg,1,2,up
,,,a,2023-10-23_17h20.09.141,Fish_Game,2023.1.3,Win32,60.74227055,,,,,,,,,,,,,2,,,,,,,,,,,,,,up,0.8184,,1,1.5,516.195,0,1,1,1,1,stimuli/bead_y.PNG,stimuli/bead_y.PNG,stimuli/blank.jpg,stimuli/blank.jpg,stimuli/blank.jpg,1,2,up
,,,a,2023-10-23_17h20.09.141,Fish_Game,2023.1.3,Win32,60.74227055,,,,,,,,,,,,,3,,,,,,,,,,,,,,up,0.9665,,1,1,518.6835,0,2,2,2,1,stimuli/bead_b.PNG,stimuli/bead_y.PNG,stimuli/bead_y.PNG,stimuli/blank.jpg,stimuli/blank.jpg,1,2,up
,,,a,2023-10-23_17h20.09.141,Fish_Game,2023.1.3,Win32,60.74227055,,,,,,,,,,,,,4,,,,,,,,,,,,,,up,1.0344,,1,1.5,521.7493,0,3,3,3,1,stimuli/bead_y.PNG,stimuli/bead_b.PNG,stimuli/bead_y.PNG,stimuli/bead_y.PNG,stimuli/blank.jpg,1,2,up
,,,a,2023-10-23_17h20.09.141,Fish_Game,2023.1.3,Win32,60.74227055,,,,,,,,,,,,,5,,,,,,,,,,,,,,up,0.8841,,1,1,524.1658,0,4,4,4,1,stimuli/bead_y.PNG,stimuli/bead_y.PNG,stimuli/bead_b.PNG,stimuli/bead_y.PNG,stimuli/bead_y.PNG,1,2,up
,,,a,2023-10-23_17h20.09.141,Fish_Game,2023.1.3,Win32,60.74227055,,,,,,,,,,,,,6,,,,,,,,,,,,,,up,0.4735,,1,1,526.165,0,5,5,5,1,stimuli/bead_y.PNG,stimuli/bead_y.PNG,stimuli/bead_y.PNG,stimuli/bead_b.PNG,stimuli/bead_y.PNG,1,2,up
,,,a,2023-10-23_17h20.09.141,Fish_Game,2023.1.3,Win32,60.74227055,,,,,,,,,,,,,7,,,,,,,,,,,,,,up,1.1744,,1,0.5,528.349,0,6,6,6,1,stimuli/bead_b.PNG,stimuli/bead_y.PNG,stimuli/bead_y.PNG,stimuli/bead_y.PNG,stimuli/bead_b.PNG,1,2,up
,,,a,2023-10-23_17h20.09.141,Fish_Game,2023.1.3,Win32,60.74227055,,,,,,,,,,,,,8,,,,,,,,,,,,,,up,0.665,,1,0.5,530.0482,0,7,7,7,1,stimuli/bead_y.PNG,stimuli/bead_b.PNG,stimuli/bead_y.PNG,stimuli/bead_y.PNG,stimuli/bead_y.PNG,1,2,up
,,,a,2023-10-23_17h20.09.141,Fish_Game,2023.1.3,Win32,60.74227055,,,,,,,,,,,,,9,,,,,,,,,,,,,,up,0.7009,,1,0.5,531.783,0,8,8,8,1,stimuli/bead_y.PNG,stimuli/bead_y.PNG,stimuli/bead_b.PNG,stimuli/bead_y.PNG,stimuli/bead_y.PNG,1,2,up
,,,a,2023-10-23_17h20.09.141,Fish_Game,2023.1.3,Win32,60.74227055,,,,,,,,,,,,,10,,,,,,,,,,,,,,up,0.8162,,1,1.5,534.6328,0,9,9,9,1,stimuli/bead_g.PNG,stimuli/bead_y.PNG,stimuli/bead_y.PNG,stimuli/bead_b.PNG,stimuli/bead_y.PNG,1,2,up
,,,a,2023-10-23_17h20.09.141,Fish_Game,2023.1.3,Win32,60.74227055,,,,,,,,,,,,,11,,,,,,,,,,,,,,up,0.2483,,1,0.5,535.9166,0,10,10,10,1,stimuli/bead_y.PNG,stimuli/bead_g.PNG,stimuli/bead_y.PNG,stimuli/bead_y.PNG,stimuli/bead_b.PNG,1,2,up
,,,a,2023-10-23_17h20.09.141,Fish_Game,2023.1.3,Win32,60.74227055,,,,,,,,,,,,,12,,,,,,,,,,,,,,right,0.1007,,0,1.5,538.0313,0,11,11,11,1,stimuli/bead_g.PNG,stimuli/bead_y.PNG,stimuli/bead_g.PNG,stimuli/bead_y.PNG,stimuli/bead_y.PNG,1,2,up
,,,a,2023-10-23_17h20.09.141,Fish_Game,2023.1.3,Win32,60.74227055,,,,,,,,,,,,,13,,,,,,,,,,,,,,right,0.3566,,0,1,539.9145,0,12,12,12,1,stimuli/bead_y.PNG,stimuli/bead_g.PNG,stimuli/bead_y.PNG,stimuli/bead_g.PNG,stimuli/bead_y.PNG,1,2,up
,,,a,2023-10-23_17h20.09.141,Fish_Game,2023.1.3,Win32,60.74227055,,,,,,,,,,,,,14,,,,,,,,,,,,,,right,0.4582,,0,0.5,541.3978,0,13,13,13,1,stimuli/bead_y.PNG,stimuli/bead_y.PNG,stimuli/bead_g.PNG,stimuli/bead_y.PNG,stimuli/bead_g.PNG,1,2,up
,,,a,2023-10-23_17h20.09.141,Fish_Game,2023.1.3,Win32,60.74227055,,,,,,,,,,,,,15,,,,,,,,,,,,,,up,0.451,,1,1.5,543.8657,0,14,14,14,1,stimuli/bead_y.PNG,stimuli/bead_y.PNG,stimuli/bead_y.PNG,stimuli/bead_g.PNG,stimuli/bead_y.PNG,1,2,up
,,,a,2023-10-23_17h20.09.141,Fish_Game,2023.1.3,Win32,60.74227055,,,,,,,,,,,,,1,,,,,,,,,,,,8,1condition/mainTrials9.xlsx,right,1.148,,1,1.5,552.0653,0,0,0,0,1,stimuli/bead_g.PNG,stimuli/blank.jpg,stimuli/blank.jpg,stimuli/blank.jpg,stimuli/blank.jpg,2,3,right
,,,a,2023-10-23_17h20.09.141,Fish_Game,2023.1.3,Win32,60.74227055,,,,,,,,,,,,,2,,,,,,,,,,,,,,right,0.4383,,1,1.5,554.5322,0,1,1,1,1,stimuli/bead_g.PNG,stimuli/bead_g.PNG,stimuli/blank.jpg,stimuli/blank.jpg,stimuli/blank.jpg,2,3,right
,,,a,2023-10-23_17h20.09.141,Fish_Game,2023.1.3,Win32,60.74227055,,,,,,,,,,,,,3,,,,,,,,,,,,,,right,0.8535,,1,1.5,557.3983,0,2,2,2,1,stimuli/bead_b.PNG,stimuli/bead_g.PNG,stimuli/bead_g.PNG,stimuli/blank.jpg,stimuli/blank.jpg,2,3,right
,,,a,2023-10-23_17h20.09.141,Fish_Game,2023.1.3,Win32,60.74227055,,,,,,,,,,,,,4,,,,,,,,,,,,,,right,1.5845,,1,0.5,560.0144,0,3,3,3,1,stimuli/bead_g.PNG,stimuli/bead_b.PNG,stimuli/bead_g.PNG,stimuli/bead_g.PNG,stimuli/blank.jpg,2,3,right
,,,a,2023-10-23_17h20.09.141,Fish_Game,2023.1.3,Win32,60.74227055,,,,,,,,,,,,,5,,,,,,,,,,,,,,right,0.5396,,1,0.5,561.5807,0,4,4,4,1,stimuli/bead_g.PNG,stimuli/bead_g.PNG,stimuli/bead_b.PNG,stimuli/bead_g.PNG,stimuli/bead_g.PNG,2,3,right
,,,a,2023-10-23_17h20.09.141,Fish_Game,2023.1.3,Win32,60.74227055,,,,,,,,,,,,,6,,,,,,,,,,,,,,right,0.8676,,1,0.5,563.4818,0,5,5,5,1,stimuli/bead_b.PNG,stimuli/bead_g.PNG,stimuli/bead_g.PNG,stimuli/bead_b.PNG,stimuli/bead_g.PNG,2,3,right
,,,a,2023-10-23_17h20.09.141,Fish_Game,2023.1.3,Win32,60.74227055,,,,,,,,,,,,,7,,,,,,,,,,,,,,right,1.6686,0.0003,1,0.5,566.1812,0,6,6,6,1,stimuli/bead_g.PNG,stimuli/bead_b.PNG,stimuli/bead_g.PNG,stimuli/bead_g.PNG,stimuli/bead_b.PNG,2,3,right
,,,a,2023-10-23_17h20.09.141,Fish_Game,2023.1.3,Win32,60.74227055,,,,,,,,,,,,,8,,,,,,,,,,,,,,right,0.7331,,1,1.5,568.9493,0,7,7,7,1,stimuli/bead_g.PNG,stimuli/bead_g.PNG,stimuli/bead_b.PNG,stimuli/bead_g.PNG,stimuli/bead_g.PNG,2,3,right
,,,a,2023-10-23_17h20.09.141,Fish_Game,2023.1.3,Win32,60.74227055,,,,,,,,,,,,,9,,,,,,,,,,,,,,right,0.9013,,0,1,571.3809,0,8,8,8,1,stimuli/bead_b.PNG,stimuli/bead_g.PNG,stimuli/bead_g.PNG,stimuli/bead_b.PNG,stimuli/bead_g.PNG,0,1,left
,,,a,2023-10-23_17h20.09.141,Fish_Game,2023.1.3,Win32,60.74227055,,,,,,,,,,,,,10,,,,,,,,,,,,,,right,0.8501,,0,1.5,574.2651,0,9,9,9,1,stimuli/bead_y.PNG,stimuli/bead_b.PNG,stimuli/bead_g.PNG,stimuli/bead_g.PNG,stimuli/bead_b.PNG,0,1,left
,,,a,2023-10-23_17h20.09.141,Fish_Game,2023.1.3,Win32,60.74227055,,,,,,,,,,,,,11,,,,,,,,,,,,,,right,3.5639,,0,1,579.365,0,10,10,10,1,stimuli/bead_b.PNG,stimuli/bead_y.PNG,stimuli/bead_b.PNG,stimuli/bead_g.PNG,stimuli/bead_g.PNG,0,1,left
,,,a,2023-10-23_17h20.09.141,Fish_Game,2023.1.3,Win32,60.74227055,,,,,,,,,,,,,12,,,,,,,,,,,,,,right,1.0344,,0,1,581.9314,0,11,11,11,1,stimuli/bead_b.PNG,stimuli/bead_b.PNG,stimuli/bead_y.PNG,stimuli/bead_b.PNG,stimuli/bead_g.PNG,0,1,left
,,,a,2023-10-23_17h20.09.141,Fish_Game,2023.1.3,Win32,60.74227055,,,,,,,,,,,,,13,,,,,,,,,,,,,,right,1.1728,,0,0.5,584.1308,0,12,12,12,1,stimuli/bead_b.PNG,stimuli/bead_b.PNG,stimuli/bead_b.PNG,stimuli/bead_y.PNG,stimuli/bead_b.PNG,0,1,left
,,,a,2023-10-23_17h20.09.141,Fish_Game,2023.1.3,Win32,60.74227055,,,,,,,,,,,,,14,,,,,,,,,,,,,,right,2.28,,0,1.5,588.4473,0,13,13,13,1,stimuli/bead_g.PNG,stimuli/bead_b.PNG,stimuli/bead_b.PNG,stimuli/bead_b.PNG,stimuli/bead_y.PNG,0,1,left
,,,a,2023-10-23_17h20.09.141,Fish_Game,2023.1.3,Win32,60.74227055,,,,,,,,,,,,,15,,,,,,,,,,,,,,right,0.1507,,0,1.5,590.6302,0,14,14,14,1,stimuli/bead_b.PNG,stimuli/bead_g.PNG,stimuli/bead_b.PNG,stimuli/bead_b.PNG,stimuli/bead_b.PNG,0,1,left
,,,a,2023-10-23_17h20.09.141,Fish_Game,2023.1.3,Win32,60.74227055,,,,,,,,,,,,,1,,,,,,,,,,,,9,1condition/mainTrials5.xlsx,left,1.5515,0.0006,1,1,598.7325,0,0,0,0,1,stimuli/bead_b.PNG,stimuli/blank.jpg,stimuli/blank.jpg,stimuli/blank.jpg,stimuli/blank.jpg,0,1,left
,,,a,2023-10-23_17h20.09.141,Fish_Game,2023.1.3,Win32,60.74227055,,,,,,,,,,,,,2,,,,,,,,,,,,,,left,0.4852,,1,0.5,600.2474,0,1,1,1,1,stimuli/bead_b.PNG,stimuli/bead_b.PNG,stimuli/blank.jpg,stimuli/blank.jpg,stimuli/blank.jpg,0,1,left
,,,a,2023-10-23_17h20.09.141,Fish_Game,2023.1.3,Win32,60.74227055,,,,,,,,,,,,,3,,,,,,,,,,,,,,left,1.3678,0.0002,1,0.5,602.6471,0,2,2,2,1,stimuli/bead_y.PNG,stimuli/bead_b.PNG,stimuli/bead_b.PNG,stimuli/blank.jpg,stimuli/blank.jpg,0,1,left
,,,a,2023-10-23_17h20.09.141,Fish_Game,2023.1.3,Win32,60.74227055,,,,,,,,,,,,,4,,,,,,,,,,,,,,left,0.4135,,1,0.5,604.098,0,3,3,3,1,stimuli/bead_b.PNG,stimuli/bead_y.PNG,stimuli/bead_b.PNG,stimuli/bead_b.PNG,stimuli/blank.jpg,0,1,left
,,,a,2023-10-23_17h20.09.141,Fish_Game,2023.1.3,Win32,60.74227055,,,,,,,,,,,,,5,,,,,,,,,,,,,,left,0.5888,,1,1.5,606.7135,0,4,4,4,1,stimuli/bead_b.PNG,stimuli/bead_b.PNG,stimuli/bead_y.PNG,stimuli/bead_b.PNG,stimuli/bead_b.PNG,0,1,left
,,,a,2023-10-23_17h20.09.141,Fish_Game,2023.1.3,Win32,60.74227055,,,,,,,,,,,,,6,,,,,,,,,,,,,,left,0.8841,,0,1.5,609.6303,0,5,5,5,1,stimuli/bead_g.PNG,stimuli/bead_b.PNG,stimuli/bead_b.PNG,stimuli/bead_y.PNG,stimuli/bead_b.PNG,2,3,right
,,,a,2023-10-23_17h20.09.141,Fish_Game,2023.1.3,Win32,60.74227055,,,,,,,,,,,,,7,,,,,,,,,,,,,,left,0.1753,,0,1,611.3299,0,6,6,6,1,stimuli/bead_g.PNG,stimuli/bead_g.PNG,stimuli/bead_b.PNG,stimuli/bead_b.PNG,stimuli/bead_y.PNG,2,2,right
,,,a,2023-10-23_17h20.09.141,Fish_Game,2023.1.3,Win32,60.74227055,,,,,,,,,,,,,8,,,,,,,,,,,,,,left,1.3729,,0,1,614.2311,0,7,7,7,1,stimuli/bead_b.PNG,stimuli/bead_g.PNG,stimuli/bead_g.PNG,stimuli/bead_b.PNG,stimuli/bead_b.PNG,2,2,right
,,,a,2023-10-23_17h20.09.141,Fish_Game,2023.1.3,Win32,60.74227055,,,,,,,,,,,,,9,,,,,,,,,,,,,,right,0.7507,,1,1,616.5135,0,8,8,8,1,stimuli/bead_g.PNG,stimuli/bead_b.PNG,stimuli/bead_g.PNG,stimuli/bead_g.PNG,stimuli/bead_b.PNG,2,2,right
,,,a,2023-10-23_17h20.09.141,Fish_Game,2023.1.3,Win32,60.74227055,,,,,,,,,,,,,10,,,,,,,,,,,,,,right,0.7519,0.0019,1,1.5,619.2973,0,9,9,9,1,stimuli/bead_b.PNG,stimuli/bead_g.PNG,stimuli/bead_b.PNG,stimuli/bead_g.PNG,stimuli/bead_g.PNG,2,2,right
,,,a,2023-10-23_17h20.09.141,Fish_Game,2023.1.3,Win32,60.74227055,,,,,,,,,,,,,11,,,,,,,,,,,,,,right,0.6977,0.0004,1,1,621.5309,0,10,10,10,1,stimuli/bead_g.PNG,stimuli/bead_b.PNG,stimuli/bead_g.PNG,stimuli/bead_b.PNG,stimuli/bead_g.PNG,2,2,right
,,,a,2023-10-23_17h20.09.141,Fish_Game,2023.1.3,Win32,60.74227055,,,,,,,,,,,,,12,,,,,,,,,,,,,,right,0.4691,,1,0.5,623.0298,0,11,11,11,1,stimuli/bead_g.PNG,stimuli/bead_g.PNG,stimuli/bead_b.PNG,stimuli/bead_g.PNG,stimuli/bead_b.PNG,2,2,right
,,,a,2023-10-23_17h20.09.141,Fish_Game,2023.1.3,Win32,60.74227055,,,,,,,,,,,,,13,,,,,,,,,,,,,,right,0.5192,,1,1,625.0635,0,12,12,12,1,stimuli/bead_g.PNG,stimuli/bead_g.PNG,stimuli/bead_g.PNG,stimuli/bead_b.PNG,stimuli/bead_g.PNG,2,3,right
,,,a,2023-10-23_17h20.09.141,Fish_Game,2023.1.3,Win32,60.74227055,,,,,,,,,,,,,14,,,,,,,,,,,,,,up,3.2115,,0,1.5,630.3133,0,13,13,13,1,stimuli/bead_y.PNG,stimuli/bead_g.PNG,stimuli/bead_g.PNG,stimuli/bead_g.PNG,stimuli/bead_b.PNG,2,3,right
,,,a,2023-10-23_17h20.09.141,Fish_Game,2023.1.3,Win32,60.74227055,,,,,,,,,,,,,15,,,,,,,,,,,,,,right,0.8874,,1,0.5,632.2295,0,14,14,14,1,stimuli/bead_g.PNG,stimuli/bead_y.PNG,stimuli/bead_g.PNG,stimuli/bead_g.PNG,stimuli/bead_g.PNG,2,3,right
,,,a,2023-10-23_17h20.09.141,Fish_Game,2023.1.3,Win32,60.74227055,,,,,,,,,,,,,1,,,,,,,,,,,,10,1condition/mainTrials10.xlsx,up,0.9349,,0,1,639.7138,0,0,0,0,1,stimuli/bead_y.PNG,stimuli/blank.jpg,stimuli/blank.jpg,stimuli/blank.jpg,stimuli/blank.jpg,0,1,left
,,,a,2023-10-23_17h20.09.141,Fish_Game,2023.1.3,Win32,60.74227055,,,,,,,,,,,,,2,,,,,,,,,,,,,,up,1.0853,,0,0.5,641.8305,0,1,1,1,1,stimuli/bead_b.PNG,stimuli/bead_y.PNG,stimuli/blank.jpg,stimuli/blank.jpg,stimuli/blank.jpg,0,1,left
,,,a,2023-10-23_17h20.09.141,Fish_Game,2023.1.3,Win32,60.74227055,,,,,,,,,,,,,3,,,,,,,,,,,,,,up,1.4021,,0,1.5,645.2625,0,2,2,2,1,stimuli/bead_b.PNG,stimuli/bead_b.PNG,stimuli/bead_y.PNG,stimuli/blank.jpg,stimuli/blank.jpg,0,1,left
,,,a,2023-10-23_17h20.09.141,Fish_Game,2023.1.3,Win32,60.74227055,,,,,,,,,,,,,4,,,,,,,,,,,,,,left,1.7731,,1,1,648.5629,0,3,3,3,1,stimuli/bead_b.PNG,stimuli/bead_b.PNG,stimuli/bead_b.PNG,stimuli/bead_y.PNG,stimuli/blank.jpg,0,1,left
,,,a,2023-10-23_17h20.09.141,Fish_Game,2023.1.3,Win32,60.74227055,,,,,,,,,,,,,5,,,,,,,,,,,,,,left,0.8587,,1,0.5,650.4467,0,4,4,4,1,stimuli/bead_b.PNG,stimuli/bead_b.PNG,stimuli/bead_b.PNG,stimuli/bead_b.PNG,stimuli/bead_y.PNG,0,1,left
,,,a,2023-10-23_17h20.09.141,Fish_Game,2023.1.3,Win32,60.74227055,,,,,,,,,,,,,6,,,,,,,,,,,,,,left,1.0644,,1,1,653.0459,0,5,5,5,1,stimuli/bead_g.PNG,stimuli/bead_b.PNG,stimuli/bead_b.PNG,stimuli/bead_b.PNG,stimuli/bead_b.PNG,0,1,left
,,,a,2023-10-23_17h20.09.141,Fish_Game,2023.1.3,Win32,60.74227055,,,,,,,,,,,,,7,,,,,,,,,,,,,,left,0.4001,,1,1.5,655.4802,0,6,6,6,1,stimuli/bead_b.PNG,stimuli/bead_g.PNG,stimuli/bead_b.PNG,stimuli/bead_b.PNG,stimuli/bead_b.PNG,0,1,left
,,,a,2023-10-23_17h20.09.141,Fish_Game,2023.1.3,Win32,60.74227055,,,,,,,,,,,,,8,,,,,,,,,,,,,,left,0.2124,,1,1.5,657.7136,0,7,7,7,1,stimuli/bead_b.PNG,stimuli/bead_b.PNG,stimuli/bead_g.PNG,stimuli/bead_b.PNG,stimuli/bead_b.PNG,0,1,left
,,,a,2023-10-23_17h20.09.141,Fish_Game,2023.1.3,Win32,60.74227055,,,,,,,,,,,,,9,,,,,,,,,,,,,,left,0.4822,,1,1.5,660.2297,0,8,8,8,1,stimuli/bead_y.PNG,stimuli/bead_b.PNG,stimuli/bead_b.PNG,stimuli/bead_g.PNG,stimuli/bead_b.PNG,0,1,left
,,,a,2023-10-23_17h20.09.141,Fish_Game,2023.1.3,Win32,60.74227055,,,,,,,,,,,,,10,,,,,,,,,,,,,,left,0.7528,,1,1,662.5124,0,9,9,9,1,stimuli/bead_b.PNG,stimuli/bead_y.PNG,stimuli/bead_b.PNG,stimuli/bead_b.PNG,stimuli/bead_g.PNG,0,1,left
,,,a,2023-10-23_17h20.09.141,Fish_Game,2023.1.3,Win32,60.74227055,,,,,,,,,,,,,11,,,,,,,,,,,,,,left,1.0008,,0,0.5,664.5458,0,10,10,10,1,stimuli/bead_g.PNG,stimuli/bead_b.PNG,stimuli/bead_y.PNG,stimuli/bead_b.PNG,stimuli/bead_b.PNG,2,3,right
,,,a,2023-10-23_17h20.09.141,Fish_Game,2023.1.3,Win32,60.74227055,,,,,,,,,,,,,12,,,,,,,,,,,,,,left,0.7516,,0,0.5,666.3293,0,11,11,11,1,stimuli/bead_b.PNG,stimuli/bead_g.PNG,stimuli/bead_b.PNG,stimuli/bead_y.PNG,stimuli/bead_b.PNG,2,3,right
,,,a,2023-10-23_17h20.09.141,Fish_Game,2023.1.3,Win32,60.74227055,,,,,,,,,,,,,13,,,,,,,,,,,,,,left,1.6982,,0,0.5,669.062,0,12,12,12,1,stimuli/bead_g.PNG,stimuli/bead_b.PNG,stimuli/bead_g.PNG,stimuli/bead_b.PNG,stimuli/bead_y.PNG,2,3,right
,,,a,2023-10-23_17h20.09.141,Fish_Game,2023.1.3,Win32,60.74227055,,,,,,,,,,,,,14,,,,,,,,,,,,,,right,1.5074,,1,0.5,671.5957,0,13,13,13,1,stimuli/bead_g.PNG,stimuli/bead_g.PNG,stimuli/bead_b.PNG,stimuli/bead_g.PNG,stimuli/bead_b.PNG,2,3,right
,,,a,2023-10-23_17h20.09.141,Fish_Game,2023.1.3,Win32,60.74227055,,,,,,,,,,,,,15,,,,,,,,,,,,,,right,0.5851,,1,1.5,674.2126,0,14,14,14,1,stimuli/bead_g.PNG,stimuli/bead_g.PNG,stimuli/bead_g.PNG,stimuli/bead_b.PNG,stimuli/bead_g.PNG,2,3,right
