welcome_key.keys,welcome_key.rt,welcome_key.duration,participant,date,expName,psychopyVersion,OS,frameRate,ins1_key.keys,ins1_key.rt,ins1_key.duration,key_resp_2.keys,key_resp_2.rt,key_resp_2.duration,fish_key_2.corr,prac_trials.thisRepN,prac_trials.thisTrialN,prac_trials.thisN,prac_trials.thisIndex,prac_trials.ran,trial,fish1_p,fish2_p,fish3_p,fish4_p,fish5_p,pond_p,pond_p2,pond_p3,ExpStart_key.keys,ExpStart_key.rt,ExpStart_key.duration,block number,block assignment,fish_key_button.keys,fish_key_button.rt,fish_key_button.duration,fish_key.corr,fish_interval,key_resp_time,trials.thisRepN,trials.thisTrialN,trials.thisN,trials.thisIndex,trials.ran,fish1,fish2,fish3,fish4,fish5,pond,pond2,pond3
space,2.8344,,amber mclaughlin,2023-10-10_10h33.46.794,Fish_Game,2023.1.3,Win32,58.02820171,,,,,,,,,,,,,,,,,,,,,,,,,,,,,,,,,,,,,,,,,,,,,
,,,amber mclaughlin,2023-10-10_10h33.46.794,Fish_Game,2023.1.3,Win32,58.02820171,,,,,,,,,,,,,,,,,,,,,,,,,,,,,,,,,,,,,,,,,,,,,
,,,amber mclaughlin,2023-10-10_10h33.46.794,Fish_Game,2023.1.3,Win32,58.02820171,space,1.8583,,,,,,,,,,,,,,,,,,,,,,,,,,,,,,,,,,,,,,,,,,,
,,,amber mclaughlin,2023-10-10_10h33.46.794,Fish_Game,2023.1.3,Win32,58.02820171,,,,,,,,,,,,,,,,,,,,,,,,,,,,,,,,,,,,,,,,,,,,,
,,,amber mclaughlin,2023-10-10_10h33.46.794,Fish_Game,2023.1.3,Win32,58.02820171,,,,,,,,,,,,,,,,,,,,,,,,,,,,,,,,,,,,,,,,,,,,,
,,,amber mclaughlin,2023-10-10_10h33.46.794,Fish_Game,2023.1.3,Win32,58.02820171,,,,left,2.903,,1,0,0,0,0,1,1,stimuli/bead_b.PNG,stimuli/blank.jpg,stimuli/blank.jpg,stimuli/blank.jpg,stimuli/blank.jpg,0,1,left,,,,,,,,,,,,,,,,,,,,,,,,
,,,amber mclaughlin,2023-10-10_10h33.46.794,Fish_Game,2023.1.3,Win32,58.02820171,,,,left,1.4189,,1,0,1,1,1,1,2,stimuli/bead_b.PNG,stimuli/bead_b.PNG,stimuli/blank.jpg,stimuli/blank.jpg,stimuli/blank.jpg,0,1,left,,,,,,,,,,,,,,,,,,,,,,,,
,,,amber mclaughlin,2023-10-10_10h33.46.794,Fish_Game,2023.1.3,Win32,58.02820171,,,,left,1.2965,,1,0,2,2,2,1,3,stimuli/bead_g.PNG,stimuli/bead_b.PNG,stimuli/bead_b.PNG,stimuli/blank.jpg,stimuli/blank.jpg,0,1,left,,,,,,,,,,,,,,,,,,,,,,,,
,,,amber mclaughlin,2023-10-10_10h33.46.794,Fish_Game,2023.1.3,Win32,58.02820171,,,,left,0.5861,,1,0,3,3,3,1,4,stimuli/bead_b.PNG,stimuli/bead_g.PNG,stimuli/bead_b.PNG,stimuli/bead_b.PNG,stimuli/blank.jpg,0,1,left,,,,,,,,,,,,,,,,,,,,,,,,
,,,amber mclaughlin,2023-10-10_10h33.46.794,Fish_Game,2023.1.3,Win32,58.02820171,,,,left,0.485,,1,0,4,4,4,1,5,stimuli/bead_b.PNG,stimuli/bead_b.PNG,stimuli/bead_g.PNG,stimuli/bead_b.PNG,stimuli/bead_b.PNG,0,1,left,,,,,,,,,,,,,,,,,,,,,,,,
,,,amber mclaughlin,2023-10-10_10h33.46.794,Fish_Game,2023.1.3,Win32,58.02820171,,,,left,1.4875,,1,0,5,5,5,1,6,stimuli/bead_y.PNG,stimuli/bead_b.PNG,stimuli/bead_b.PNG,stimuli/bead_g.PNG,stimuli/bead_b.PNG,0,1,left,,,,,,,,,,,,,,,,,,,,,,,,
,,,amber mclaughlin,2023-10-10_10h33.46.794,Fish_Game,2023.1.3,Win32,58.02820171,,,,left,0.9022,,1,0,6,6,6,1,7,stimuli/bead_b.PNG,stimuli/bead_y.PNG,stimuli/bead_b.PNG,stimuli/bead_b.PNG,stimuli/bead_g.PNG,0,1,left,,,,,,,,,,,,,,,,,,,,,,,,
,,,amber mclaughlin,2023-10-10_10h33.46.794,Fish_Game,2023.1.3,Win32,58.02820171,,,,up,1.4202,,1,0,7,7,7,1,8,stimuli/bead_y.PNG,stimuli/bead_b.PNG,stimuli/bead_y.PNG,stimuli/bead_b.PNG,stimuli/bead_b.PNG,1,2,up,,,,,,,,,,,,,,,,,,,,,,,,
,,,amber mclaughlin,2023-10-10_10h33.46.794,Fish_Game,2023.1.3,Win32,58.02820171,,,,up,0.5339,,1,0,8,8,8,1,9,stimuli/bead_y.PNG,stimuli/bead_y.PNG,stimuli/bead_b.PNG,stimuli/bead_y.PNG,stimuli/bead_b.PNG,1,2,up,,,,,,,,,,,,,,,,,,,,,,,,
,,,amber mclaughlin,2023-10-10_10h33.46.794,Fish_Game,2023.1.3,Win32,58.02820171,,,,up,0.352,,1,0,9,9,9,1,10,stimuli/bead_b.PNG,stimuli/bead_y.PNG,stimuli/bead_y.PNG,stimuli/bead_b.PNG,stimuli/bead_y.PNG,1,2,up,,,,,,,,,,,,,,,,,,,,,,,,
,,,amber mclaughlin,2023-10-10_10h33.46.794,Fish_Game,2023.1.3,Win32,58.02820171,,,,up,0.4863,,1,0,10,10,10,1,11,stimuli/bead_y.PNG,stimuli/bead_b.PNG,stimuli/bead_y.PNG,stimuli/bead_y.PNG,stimuli/bead_b.PNG,1,2,up,,,,,,,,,,,,,,,,,,,,,,,,
,,,amber mclaughlin,2023-10-10_10h33.46.794,Fish_Game,2023.1.3,Win32,58.02820171,,,,up,0.3853,,1,0,11,11,11,1,12,stimuli/bead_y.PNG,stimuli/bead_y.PNG,stimuli/bead_b.PNG,stimuli/bead_y.PNG,stimuli/bead_y.PNG,1,2,up,,,,,,,,,,,,,,,,,,,,,,,,
,,,amber mclaughlin,2023-10-10_10h33.46.794,Fish_Game,2023.1.3,Win32,58.02820171,,,,up,0.9848,,1,0,12,12,12,1,13,stimuli/bead_b.PNG,stimuli/bead_y.PNG,stimuli/bead_y.PNG,stimuli/bead_b.PNG,stimuli/bead_y.PNG,1,2,up,,,,,,,,,,,,,,,,,,,,,,,,
,,,amber mclaughlin,2023-10-10_10h33.46.794,Fish_Game,2023.1.3,Win32,58.02820171,,,,up,0.485,,1,0,13,13,13,1,14,stimuli/bead_y.PNG,stimuli/bead_b.PNG,stimuli/bead_y.PNG,stimuli/bead_y.PNG,stimuli/bead_b.PNG,1,2,up,,,,,,,,,,,,,,,,,,,,,,,,
,,,amber mclaughlin,2023-10-10_10h33.46.794,Fish_Game,2023.1.3,Win32,58.02820171,,,,up,0.2838,,1,0,14,14,14,1,15,stimuli/bead_y.PNG,stimuli/bead_y.PNG,stimuli/bead_b.PNG,stimuli/bead_y.PNG,stimuli/bead_y.PNG,1,2,up,,,,,,,,,,,,,,,,,,,,,,,,
,,,amber mclaughlin,2023-10-10_10h33.46.794,Fish_Game,2023.1.3,Win32,58.02820171,,,,right,1.1036,,1,0,0,0,0,1,1,stimuli/bead_g.PNG,stimuli/blank.jpg,stimuli/blank.jpg,stimuli/blank.jpg,stimuli/blank.jpg,2,3,right,,,,,,,,,,,,,,,,,,,,,,,,
,,,amber mclaughlin,2023-10-10_10h33.46.794,Fish_Game,2023.1.3,Win32,58.02820171,,,,right,0.7024,,1,0,1,1,1,1,2,stimuli/bead_g.PNG,stimuli/bead_g.PNG,stimuli/blank.jpg,stimuli/blank.jpg,stimuli/blank.jpg,2,3,right,,,,,,,,,,,,,,,,,,,,,,,,
,,,amber mclaughlin,2023-10-10_10h33.46.794,Fish_Game,2023.1.3,Win32,58.02820171,,,,right,0.3,,1,0,2,2,2,1,3,stimuli/bead_b.PNG,stimuli/bead_g.PNG,stimuli/bead_g.PNG,stimuli/blank.jpg,stimuli/blank.jpg,2,3,right,,,,,,,,,,,,,,,,,,,,,,,,
,,,amber mclaughlin,2023-10-10_10h33.46.794,Fish_Game,2023.1.3,Win32,58.02820171,,,,right,1.3372,,1,0,3,3,3,1,4,stimuli/bead_g.PNG,stimuli/bead_g.PNG,stimuli/bead_g.PNG,stimuli/bead_g.PNG,stimuli/blank.jpg,2,3,right,,,,,,,,,,,,,,,,,,,,,,,,
,,,amber mclaughlin,2023-10-10_10h33.46.794,Fish_Game,2023.1.3,Win32,58.02820171,,,,right,0.8345,,1,0,4,4,4,1,5,stimuli/bead_b.PNG,stimuli/bead_b.PNG,stimuli/bead_g.PNG,stimuli/bead_g.PNG,stimuli/bead_g.PNG,2,3,right,,,,,,,,,,,,,,,,,,,,,,,,
,,,amber mclaughlin,2023-10-10_10h33.46.794,Fish_Game,2023.1.3,Win32,58.02820171,,,,right,0.3855,,1,0,5,5,5,1,6,stimuli/bead_g.PNG,stimuli/bead_g.PNG,stimuli/bead_b.PNG,stimuli/bead_g.PNG,stimuli/bead_g.PNG,2,3,right,,,,,,,,,,,,,,,,,,,,,,,,
,,,amber mclaughlin,2023-10-10_10h33.46.794,Fish_Game,2023.1.3,Win32,58.02820171,,,,right,0.402,,1,0,6,6,6,1,7,stimuli/bead_g.PNG,stimuli/bead_b.PNG,stimuli/bead_g.PNG,stimuli/bead_b.PNG,stimuli/bead_g.PNG,2,3,right,,,,,,,,,,,,,,,,,,,,,,,,
,,,amber mclaughlin,2023-10-10_10h33.46.794,Fish_Game,2023.1.3,Win32,58.02820171,,,,right,1.7036,,1,0,7,7,7,1,8,stimuli/bead_g.PNG,stimuli/bead_g.PNG,stimuli/bead_b.PNG,stimuli/bead_g.PNG,stimuli/bead_b.PNG,2,3,right,,,,,,,,,,,,,,,,,,,,,,,,
,,,amber mclaughlin,2023-10-10_10h33.46.794,Fish_Game,2023.1.3,Win32,58.02820171,,,,right,3.023,,0,0,8,8,8,1,9,stimuli/bead_y.PNG,stimuli/bead_g.PNG,stimuli/bead_g.PNG,stimuli/bead_b.PNG,stimuli/bead_g.PNG,1,2,up,,,,,,,,,,,,,,,,,,,,,,,,
,,,amber mclaughlin,2023-10-10_10h33.46.794,Fish_Game,2023.1.3,Win32,58.02820171,,,,up,0.5009,,1,0,9,9,9,1,10,stimuli/bead_y.PNG,stimuli/bead_g.PNG,stimuli/bead_g.PNG,stimuli/bead_g.PNG,stimuli/bead_b.PNG,1,2,up,,,,,,,,,,,,,,,,,,,,,,,,
,,,amber mclaughlin,2023-10-10_10h33.46.794,Fish_Game,2023.1.3,Win32,58.02820171,,,,up,1.0013,,1,0,10,10,10,1,11,stimuli/bead_y.PNG,stimuli/bead_y.PNG,stimuli/bead_g.PNG,stimuli/bead_g.PNG,stimuli/bead_g.PNG,1,2,up,,,,,,,,,,,,,,,,,,,,,,,,
,,,amber mclaughlin,2023-10-10_10h33.46.794,Fish_Game,2023.1.3,Win32,58.02820171,,,,up,1.7549,,1,0,11,11,11,1,12,stimuli/bead_g.PNG,stimuli/bead_y.PNG,stimuli/bead_y.PNG,stimuli/bead_g.PNG,stimuli/bead_g.PNG,1,2,up,,,,,,,,,,,,,,,,,,,,,,,,
,,,amber mclaughlin,2023-10-10_10h33.46.794,Fish_Game,2023.1.3,Win32,58.02820171,,,,up,1.4707,,1,0,12,12,12,1,13,stimuli/bead_y.PNG,stimuli/bead_y.PNG,stimuli/bead_y.PNG,stimuli/bead_y.PNG,stimuli/bead_g.PNG,1,2,up,,,,,,,,,,,,,,,,,,,,,,,,
,,,amber mclaughlin,2023-10-10_10h33.46.794,Fish_Game,2023.1.3,Win32,58.02820171,,,,up,0.5678,,1,0,13,13,13,1,14,stimuli/bead_y.PNG,stimuli/bead_g.PNG,stimuli/bead_y.PNG,stimuli/bead_y.PNG,stimuli/bead_y.PNG,1,2,up,,,,,,,,,,,,,,,,,,,,,,,,
,,,amber mclaughlin,2023-10-10_10h33.46.794,Fish_Game,2023.1.3,Win32,58.02820171,,,,up,1.3364,,1,0,14,14,14,1,15,stimuli/bead_b.PNG,stimuli/bead_y.PNG,stimuli/bead_g.PNG,stimuli/bead_y.PNG,stimuli/bead_y.PNG,1,2,up,,,,,,,,,,,,,,,,,,,,,,,,
,,,amber mclaughlin,2023-10-10_10h33.46.794,Fish_Game,2023.1.3,Win32,58.02820171,,,,,,,,,,,,,1,,,,,,,,,space,5.6615,,1,1condition/mainTrials1.xlsx,right,1.37,,1,1.5,225.6661,0,0,0,0,1,stimuli/bead_g.PNG,stimuli/blank.jpg,stimuli/blank.jpg,stimuli/blank.jpg,stimuli/blank.jpg,2,3,right
,,,amber mclaughlin,2023-10-10_10h33.46.794,Fish_Game,2023.1.3,Win32,58.02820171,,,,,,,,,,,,,2,,,,,,,,,,,,,,right,1.003,,1,1,228.187,0,1,1,1,1,stimuli/bead_y.PNG,stimuli/bead_g.PNG,stimuli/blank.jpg,stimuli/blank.jpg,stimuli/blank.jpg,2,3,right
,,,amber mclaughlin,2023-10-10_10h33.46.794,Fish_Game,2023.1.3,Win32,58.02820171,,,,,,,,,,,,,3,,,,,,,,,,,,,,right,0.5683,,1,0.5,229.7737,0,2,2,2,1,stimuli/bead_g.PNG,stimuli/bead_y.PNG,stimuli/bead_g.PNG,stimuli/blank.jpg,stimuli/blank.jpg,2,3,right
,,,amber mclaughlin,2023-10-10_10h33.46.794,Fish_Game,2023.1.3,Win32,58.02820171,,,,,,,,,,,,,4,,,,,,,,,,,,,,left,2.3555,,0,0.5,233.1478,0,3,3,3,1,stimuli/bead_b.PNG,stimuli/bead_g.PNG,stimuli/bead_y.PNG,stimuli/bead_g.PNG,stimuli/blank.jpg,2,3,right
,,,amber mclaughlin,2023-10-10_10h33.46.794,Fish_Game,2023.1.3,Win32,58.02820171,,,,,,,,,,,,,5,,,,,,,,,,,,,,right,1.2369,,1,1.5,236.4039,0,4,4,4,1,stimuli/bead_g.PNG,stimuli/bead_b.PNG,stimuli/bead_g.PNG,stimuli/bead_y.PNG,stimuli/bead_g.PNG,2,3,right
,,,amber mclaughlin,2023-10-10_10h33.46.794,Fish_Game,2023.1.3,Win32,58.02820171,,,,,,,,,,,,,6,,,,,,,,,,,,,,right,0.652,,1,1,238.5739,0,5,5,5,1,stimuli/bead_g.PNG,stimuli/bead_g.PNG,stimuli/bead_b.PNG,stimuli/bead_g.PNG,stimuli/bead_y.PNG,2,3,right
,,,amber mclaughlin,2023-10-10_10h33.46.794,Fish_Game,2023.1.3,Win32,58.02820171,,,,,,,,,,,,,7,,,,,,,,,,,,,,right,0.3182,,1,1,240.4287,0,6,6,6,1,stimuli/bead_g.PNG,stimuli/bead_g.PNG,stimuli/bead_g.PNG,stimuli/bead_b.PNG,stimuli/bead_g.PNG,2,3,right
,,,amber mclaughlin,2023-10-10_10h33.46.794,Fish_Game,2023.1.3,Win32,58.02820171,,,,,,,,,,,,,8,,,,,,,,,,,,,,right,1.655,,1,1.5,244.1027,0,7,7,7,1,stimuli/bead_g.PNG,stimuli/bead_g.PNG,stimuli/bead_g.PNG,stimuli/bead_g.PNG,stimuli/bead_b.PNG,2,3,right
,,,amber mclaughlin,2023-10-10_10h33.46.794,Fish_Game,2023.1.3,Win32,58.02820171,,,,,,,,,,,,,9,,,,,,,,,,,,,,up,1.1364,,0,1,246.7569,0,8,8,8,1,stimuli/bead_b.PNG,stimuli/bead_g.PNG,stimuli/bead_g.PNG,stimuli/bead_g.PNG,stimuli/bead_g.PNG,2,3,right
,,,amber mclaughlin,2023-10-10_10h33.46.794,Fish_Game,2023.1.3,Win32,58.02820171,,,,,,,,,,,,,10,,,,,,,,,,,,,,,,,,0.5,246.7569,0,9,9,9,1,stimuli/bead_g.PNG,stimuli/bead_b.PNG,stimuli/bead_g.PNG,stimuli/bead_g.PNG,stimuli/bead_g.PNG,2,3,right
,,,amber mclaughlin,2023-10-10_10h33.46.794,Fish_Game,2023.1.3,Win32,58.02820171,,,,,,,,,,,,,11,,,,,,,,,,,,,,left,3.1073,,0,1,256.6098,0,10,10,10,1,stimuli/bead_g.PNG,stimuli/bead_g.PNG,stimuli/bead_b.PNG,stimuli/bead_g.PNG,stimuli/bead_g.PNG,2,3,right
,,,amber mclaughlin,2023-10-10_10h33.46.794,Fish_Game,2023.1.3,Win32,58.02820171,,,,,,,,,,,,,12,,,,,,,,,,,,,,right,1.0865,,1,0.5,258.7311,0,11,11,11,1,stimuli/bead_g.PNG,stimuli/bead_g.PNG,stimuli/bead_g.PNG,stimuli/bead_b.PNG,stimuli/bead_g.PNG,2,3,right
,,,amber mclaughlin,2023-10-10_10h33.46.794,Fish_Game,2023.1.3,Win32,58.02820171,,,,,,,,,,,,,13,,,,,,,,,,,,,,up,0.5692,,0,1,260.8177,0,12,12,12,1,stimuli/bead_b.PNG,stimuli/bead_g.PNG,stimuli/bead_g.PNG,stimuli/bead_g.PNG,stimuli/bead_b.PNG,0,1,left
,,,amber mclaughlin,2023-10-10_10h33.46.794,Fish_Game,2023.1.3,Win32,58.02820171,,,,,,,,,,,,,14,,,,,,,,,,,,,,,,,,0.5,260.8177,0,13,13,13,1,stimuli/bead_b.PNG,stimuli/bead_b.PNG,stimuli/bead_g.PNG,stimuli/bead_g.PNG,stimuli/bead_g.PNG,0,1,left
,,,amber mclaughlin,2023-10-10_10h33.46.794,Fish_Game,2023.1.3,Win32,58.02820171,,,,,,,,,,,,,15,,,,,,,,,,,,,,right,0.8196,,0,1.5,268.8665,0,14,14,14,1,stimuli/bead_b.PNG,stimuli/bead_b.PNG,stimuli/bead_b.PNG,stimuli/bead_g.PNG,stimuli/bead_g.PNG,0,1,left
,,,amber mclaughlin,2023-10-10_10h33.46.794,Fish_Game,2023.1.3,Win32,58.02820171,,,,,,,,,,,,,1,,,,,,,,,,,,2,1condition/mainTrials2.xlsx,up,1.5211,,1,0.5,276.4153,0,0,0,0,1,stimuli/bead_y.PNG,stimuli/blank.jpg,stimuli/blank.jpg,stimuli/blank.jpg,stimuli/blank.jpg,1,2,up
,,,amber mclaughlin,2023-10-10_10h33.46.794,Fish_Game,2023.1.3,Win32,58.02820171,,,,,,,,,,,,,2,,,,,,,,,,,,,,right,0.7857,,0,1.5,279.2207,0,1,1,1,1,stimuli/bead_b.PNG,stimuli/bead_y.PNG,stimuli/blank.jpg,stimuli/blank.jpg,stimuli/blank.jpg,1,2,up
,,,amber mclaughlin,2023-10-10_10h33.46.794,Fish_Game,2023.1.3,Win32,58.02820171,,,,,,,,,,,,,3,,,,,,,,,,,,,,left,1.6707,,0,0.5,281.925,0,2,2,2,1,stimuli/bead_y.PNG,stimuli/bead_b.PNG,stimuli/bead_y.PNG,stimuli/blank.jpg,stimuli/blank.jpg,1,2,up
,,,amber mclaughlin,2023-10-10_10h33.46.794,Fish_Game,2023.1.3,Win32,58.02820171,,,,,,,,,,,,,4,,,,,,,,,,,,,,up,0.8196,,1,1,284.2646,0,3,3,3,1,stimuli/bead_y.PNG,stimuli/bead_y.PNG,stimuli/bead_b.PNG,stimuli/bead_y.PNG,stimuli/blank.jpg,1,2,up
,,,amber mclaughlin,2023-10-10_10h33.46.794,Fish_Game,2023.1.3,Win32,58.02820171,,,,,,,,,,,,,5,,,,,,,,,,,,,,up,0.6369,,1,1,286.4354,0,4,4,4,1,stimuli/bead_g.PNG,stimuli/bead_y.PNG,stimuli/bead_y.PNG,stimuli/bead_b.PNG,stimuli/bead_y.PNG,1,2,up
,,,amber mclaughlin,2023-10-10_10h33.46.794,Fish_Game,2023.1.3,Win32,58.02820171,,,,,,,,,,,,,6,,,,,,,,,,,,,,right,1.1533,,0,1,289.1223,0,5,5,5,1,stimuli/bead_y.PNG,stimuli/bead_g.PNG,stimuli/bead_y.PNG,stimuli/bead_y.PNG,stimuli/bead_b.PNG,1,2,up
,,,amber mclaughlin,2023-10-10_10h33.46.794,Fish_Game,2023.1.3,Win32,58.02820171,,,,,,,,,,,,,7,,,,,,,,,,,,,,left,0.7367,,1,1,291.3773,0,6,6,6,1,stimuli/bead_b.PNG,stimuli/bead_y.PNG,stimuli/bead_g.PNG,stimuli/bead_y.PNG,stimuli/bead_y.PNG,0,1,left
,,,amber mclaughlin,2023-10-10_10h33.46.794,Fish_Game,2023.1.3,Win32,58.02820171,,,,,,,,,,,,,8,,,,,,,,,,,,,,left,0.9875,,1,0.5,293.3989,0,7,7,7,1,stimuli/bead_b.PNG,stimuli/bead_b.PNG,stimuli/bead_y.PNG,stimuli/bead_g.PNG,stimuli/bead_y.PNG,0,1,left
,,,amber mclaughlin,2023-10-10_10h33.46.794,Fish_Game,2023.1.3,Win32,58.02820171,,,,,,,,,,,,,9,,,,,,,,,,,,,,left,0.885,,1,0.5,295.3162,0,8,8,8,1,stimuli/bead_y.PNG,stimuli/bead_b.PNG,stimuli/bead_b.PNG,stimuli/bead_y.PNG,stimuli/bead_g.PNG,0,1,left
,,,amber mclaughlin,2023-10-10_10h33.46.794,Fish_Game,2023.1.3,Win32,58.02820171,,,,,,,,,,,,,10,,,,,,,,,,,,,,left,1.421,,1,1.5,298.7584,0,9,9,9,1,stimuli/bead_b.PNG,stimuli/bead_y.PNG,stimuli/bead_b.PNG,stimuli/bead_b.PNG,stimuli/bead_y.PNG,0,1,left
,,,amber mclaughlin,2023-10-10_10h33.46.794,Fish_Game,2023.1.3,Win32,58.02820171,,,,,,,,,,,,,11,,,,,,,,,,,,,,left,2.2211,,1,0.5,301.9806,0,10,10,10,1,stimuli/bead_b.PNG,stimuli/bead_b.PNG,stimuli/bead_y.PNG,stimuli/bead_b.PNG,stimuli/bead_b.PNG,0,1,left
,,,amber mclaughlin,2023-10-10_10h33.46.794,Fish_Game,2023.1.3,Win32,58.02820171,,,,,,,,,,,,,12,,,,,,,,,,,,,,left,0.3009,,1,1.5,304.3019,0,11,11,11,1,stimuli/bead_b.PNG,stimuli/bead_b.PNG,stimuli/bead_b.PNG,stimuli/bead_y.PNG,stimuli/bead_b.PNG,0,1,left
,,,amber mclaughlin,2023-10-10_10h33.46.794,Fish_Game,2023.1.3,Win32,58.02820171,,,,,,,,,,,,,13,,,,,,,,,,,,,,left,0.4198,,1,1,306.2396,0,12,12,12,1,stimuli/bead_g.PNG,stimuli/bead_b.PNG,stimuli/bead_b.PNG,stimuli/bead_b.PNG,stimuli/bead_y.PNG,0,1,left
,,,amber mclaughlin,2023-10-10_10h33.46.794,Fish_Game,2023.1.3,Win32,58.02820171,,,,,,,,,,,,,14,,,,,,,,,,,,,,left,0.3847,,1,1,308.142,0,13,13,13,1,stimuli/bead_b.PNG,stimuli/bead_g.PNG,stimuli/bead_b.PNG,stimuli/bead_b.PNG,stimuli/bead_b.PNG,0,1,left
,,,amber mclaughlin,2023-10-10_10h33.46.794,Fish_Game,2023.1.3,Win32,58.02820171,,,,,,,,,,,,,15,,,,,,,,,,,,,,left,1.7027,,1,1.5,311.8657,0,14,14,14,1,stimuli/bead_b.PNG,stimuli/bead_b.PNG,stimuli/bead_g.PNG,stimuli/bead_b.PNG,stimuli/bead_b.PNG,0,1,left
,,,amber mclaughlin,2023-10-10_10h33.46.794,Fish_Game,2023.1.3,Win32,58.02820171,,,,,,,,,,,,,1,,,,,,,,,,,,3,1condition/mainTrials3.xlsx,right,0.6864,,0,0.5,318.5802,0,0,0,0,1,stimuli/bead_y.PNG,stimuli/blank.jpg,stimuli/blank.jpg,stimuli/blank.jpg,stimuli/blank.jpg,1,2,up
,,,amber mclaughlin,2023-10-10_10h33.46.794,Fish_Game,2023.1.3,Win32,58.02820171,,,,,,,,,,,,,2,,,,,,,,,,,,,,up,0.4693,,1,1.5,321.0688,0,1,1,1,1,stimuli/bead_y.PNG,stimuli/bead_y.PNG,stimuli/blank.jpg,stimuli/blank.jpg,stimuli/blank.jpg,1,2,up
,,,amber mclaughlin,2023-10-10_10h33.46.794,Fish_Game,2023.1.3,Win32,58.02820171,,,,,,,,,,,,,3,,,,,,,,,,,,,,up,2.2377,,1,1.5,325.3257,0,2,2,2,1,stimuli/bead_b.PNG,stimuli/bead_y.PNG,stimuli/bead_y.PNG,stimuli/blank.jpg,stimuli/blank.jpg,1,2,up
,,,amber mclaughlin,2023-10-10_10h33.46.794,Fish_Game,2023.1.3,Win32,58.02820171,,,,,,,,,,,,,4,,,,,,,,,,,,,,left,1.8208,,0,1.5,329.1822,0,3,3,3,1,stimuli/bead_y.PNG,stimuli/bead_b.PNG,stimuli/bead_y.PNG,stimuli/bead_y.PNG,stimuli/blank.jpg,1,2,up
,,,amber mclaughlin,2023-10-10_10h33.46.794,Fish_Game,2023.1.3,Win32,58.02820171,,,,,,,,,,,,,5,,,,,,,,,,,,,,up,1.5712,,1,0.5,331.7716,0,4,4,4,1,stimuli/bead_y.PNG,stimuli/bead_y.PNG,stimuli/bead_b.PNG,stimuli/bead_y.PNG,stimuli/bead_y.PNG,1,2,up
,,,amber mclaughlin,2023-10-10_10h33.46.794,Fish_Game,2023.1.3,Win32,58.02820171,,,,,,,,,,,,,6,,,,,,,,,,,,,,up,0.6992,,1,1,333.9905,0,5,5,5,1,stimuli/bead_y.PNG,stimuli/bead_y.PNG,stimuli/bead_y.PNG,stimuli/bead_b.PNG,stimuli/bead_y.PNG,1,2,up
,,,amber mclaughlin,2023-10-10_10h33.46.794,Fish_Game,2023.1.3,Win32,58.02820171,,,,,,,,,,,,,7,,,,,,,,,,,,,,up,0.5845,,1,1,336.1133,0,6,6,6,1,stimuli/bead_b.PNG,stimuli/bead_y.PNG,stimuli/bead_y.PNG,stimuli/bead_y.PNG,stimuli/bead_b.PNG,1,2,up
,,,amber mclaughlin,2023-10-10_10h33.46.794,Fish_Game,2023.1.3,Win32,58.02820171,,,,,,,,,,,,,8,,,,,,,,,,,,,,up,0.4347,,1,0.5,337.5824,0,7,7,7,1,stimuli/bead_y.PNG,stimuli/bead_b.PNG,stimuli/bead_y.PNG,stimuli/bead_y.PNG,stimuli/bead_y.PNG,1,2,up
,,,amber mclaughlin,2023-10-10_10h33.46.794,Fish_Game,2023.1.3,Win32,58.02820171,,,,,,,,,,,,,9,,,,,,,,,,,,,,up,0.3185,,1,1,339.4203,0,8,8,8,1,stimuli/bead_y.PNG,stimuli/bead_y.PNG,stimuli/bead_b.PNG,stimuli/bead_y.PNG,stimuli/bead_y.PNG,1,2,up
,,,amber mclaughlin,2023-10-10_10h33.46.794,Fish_Game,2023.1.3,Win32,58.02820171,,,,,,,,,,,,,10,,,,,,,,,,,,,,right,0.8874,,0,1.5,342.327,0,9,9,9,1,stimuli/bead_g.PNG,stimuli/bead_y.PNG,stimuli/bead_y.PNG,stimuli/bead_b.PNG,stimuli/bead_y.PNG,1,2,up
,,,amber mclaughlin,2023-10-10_10h33.46.794,Fish_Game,2023.1.3,Win32,58.02820171,,,,,,,,,,,,,11,,,,,,,,,,,,,,right,0.8185,,0,1.5,345.1649,0,10,10,10,1,stimuli/bead_y.PNG,stimuli/bead_g.PNG,stimuli/bead_y.PNG,stimuli/bead_y.PNG,stimuli/bead_b.PNG,1,2,up
,,,amber mclaughlin,2023-10-10_10h33.46.794,Fish_Game,2023.1.3,Win32,58.02820171,,,,,,,,,,,,,12,,,,,,,,,,,,,,right,0.4844,,0,1,347.1685,0,11,11,11,1,stimuli/bead_g.PNG,stimuli/bead_y.PNG,stimuli/bead_g.PNG,stimuli/bead_y.PNG,stimuli/bead_y.PNG,1,2,up
,,,amber mclaughlin,2023-10-10_10h33.46.794,Fish_Game,2023.1.3,Win32,58.02820171,,,,,,,,,,,,,13,,,,,,,,,,,,,,right,1.153,,0,1,349.8405,0,12,12,12,1,stimuli/bead_y.PNG,stimuli/bead_g.PNG,stimuli/bead_y.PNG,stimuli/bead_g.PNG,stimuli/bead_y.PNG,1,2,up
,,,amber mclaughlin,2023-10-10_10h33.46.794,Fish_Game,2023.1.3,Win32,58.02820171,,,,,,,,,,,,,14,,,,,,,,,,,,,,up,0.9373,,1,1,352.2969,0,13,13,13,1,stimuli/bead_y.PNG,stimuli/bead_y.PNG,stimuli/bead_g.PNG,stimuli/bead_y.PNG,stimuli/bead_g.PNG,1,2,up
,,,amber mclaughlin,2023-10-10_10h33.46.794,Fish_Game,2023.1.3,Win32,58.02820171,,,,,,,,,,,,,15,,,,,,,,,,,,,,up,0.4837,,1,1,354.3145,0,14,14,14,1,stimuli/bead_y.PNG,stimuli/bead_y.PNG,stimuli/bead_y.PNG,stimuli/bead_g.PNG,stimuli/bead_y.PNG,1,2,up
,,,amber mclaughlin,2023-10-10_10h33.46.794,Fish_Game,2023.1.3,Win32,58.02820171,,,,,,,,,,,,,1,,,,,,,,,,,,4,1condition/mainTrials4.xlsx,right,0.8854,,1,1,361.7471,0,0,0,0,1,stimuli/bead_g.PNG,stimuli/blank.jpg,stimuli/blank.jpg,stimuli/blank.jpg,stimuli/blank.jpg,2,3,right
,,,amber mclaughlin,2023-10-10_10h33.46.794,Fish_Game,2023.1.3,Win32,58.02820171,,,,,,,,,,,,,2,,,,,,,,,,,,,,right,0.5009,,1,1,363.7675,0,1,1,1,1,stimuli/bead_g.PNG,stimuli/bead_g.PNG,stimuli/blank.jpg,stimuli/blank.jpg,stimuli/blank.jpg,2,3,right
,,,amber mclaughlin,2023-10-10_10h33.46.794,Fish_Game,2023.1.3,Win32,58.02820171,,,,,,,,,,,,,3,,,,,,,,,,,,,,right,0.6357,,1,1,365.9212,0,2,2,2,1,stimuli/bead_b.PNG,stimuli/bead_g.PNG,stimuli/bead_g.PNG,stimuli/blank.jpg,stimuli/blank.jpg,2,3,right
,,,amber mclaughlin,2023-10-10_10h33.46.794,Fish_Game,2023.1.3,Win32,58.02820171,,,,,,,,,,,,,4,,,,,,,,,,,,,,right,0.3695,,1,1.5,368.329,0,3,3,3,1,stimuli/bead_g.PNG,stimuli/bead_b.PNG,stimuli/bead_g.PNG,stimuli/bead_g.PNG,stimuli/blank.jpg,2,3,right
,,,amber mclaughlin,2023-10-10_10h33.46.794,Fish_Game,2023.1.3,Win32,58.02820171,,,,,,,,,,,,,5,,,,,,,,,,,,,,right,0.7354,,1,1,370.5809,0,4,4,4,1,stimuli/bead_g.PNG,stimuli/bead_g.PNG,stimuli/bead_b.PNG,stimuli/bead_g.PNG,stimuli/bead_g.PNG,2,3,right
,,,amber mclaughlin,2023-10-10_10h33.46.794,Fish_Game,2023.1.3,Win32,58.02820171,,,,,,,,,,,,,6,,,,,,,,,,,,,,right,1.2518,,1,0.5,372.8681,0,5,5,5,1,stimuli/bead_y.PNG,stimuli/bead_g.PNG,stimuli/bead_g.PNG,stimuli/bead_b.PNG,stimuli/bead_g.PNG,2,3,right
,,,amber mclaughlin,2023-10-10_10h33.46.794,Fish_Game,2023.1.3,Win32,58.02820171,,,,,,,,,,,,,7,,,,,,,,,,,,,,right,0.8201,,1,0.5,374.7221,0,6,6,6,1,stimuli/bead_g.PNG,stimuli/bead_y.PNG,stimuli/bead_g.PNG,stimuli/bead_g.PNG,stimuli/bead_b.PNG,2,3,right
,,,amber mclaughlin,2023-10-10_10h33.46.794,Fish_Game,2023.1.3,Win32,58.02820171,,,,,,,,,,,,,8,,,,,,,,,,,,,,right,0.719,,0,1,376.9623,0,7,7,7,1,stimuli/bead_y.PNG,stimuli/bead_g.PNG,stimuli/bead_y.PNG,stimuli/bead_g.PNG,stimuli/bead_g.PNG,1,2,up
,,,amber mclaughlin,2023-10-10_10h33.46.794,Fish_Game,2023.1.3,Win32,58.02820171,,,,,,,,,,,,,9,,,,,,,,,,,,,,right,0.7354,,0,1,379.2312,0,8,8,8,1,stimuli/bead_y.PNG,stimuli/bead_y.PNG,stimuli/bead_g.PNG,stimuli/bead_y.PNG,stimuli/bead_g.PNG,1,2,up
,,,amber mclaughlin,2023-10-10_10h33.46.794,Fish_Game,2023.1.3,Win32,58.02820171,,,,,,,,,,,,,10,,,,,,,,,,,,,,right,1.2538,,0,1.5,382.5041,0,9,9,9,1,stimuli/bead_g.PNG,stimuli/bead_y.PNG,stimuli/bead_y.PNG,stimuli/bead_g.PNG,stimuli/bead_y.PNG,1,2,up
,,,amber mclaughlin,2023-10-10_10h33.46.794,Fish_Game,2023.1.3,Win32,58.02820171,,,,,,,,,,,,,11,,,,,,,,,,,,,,right,0.4678,,0,0.5,383.9894,0,10,10,10,1,stimuli/bead_y.PNG,stimuli/bead_g.PNG,stimuli/bead_y.PNG,stimuli/bead_y.PNG,stimuli/bead_g.PNG,1,2,up
,,,amber mclaughlin,2023-10-10_10h33.46.794,Fish_Game,2023.1.3,Win32,58.02820171,,,,,,,,,,,,,12,,,,,,,,,,,,,,up,0.5034,,1,1.5,386.5123,0,11,11,11,1,stimuli/bead_y.PNG,stimuli/bead_y.PNG,stimuli/bead_g.PNG,stimuli/bead_y.PNG,stimuli/bead_y.PNG,1,2,up
,,,amber mclaughlin,2023-10-10_10h33.46.794,Fish_Game,2023.1.3,Win32,58.02820171,,,,,,,,,,,,,13,,,,,,,,,,,,,,up,0.8184,,1,0.5,388.3479,0,12,12,12,1,stimuli/bead_b.PNG,stimuli/bead_y.PNG,stimuli/bead_y.PNG,stimuli/bead_g.PNG,stimuli/bead_y.PNG,1,2,up
,,,amber mclaughlin,2023-10-10_10h33.46.794,Fish_Game,2023.1.3,Win32,58.02820171,,,,,,,,,,,,,14,,,,,,,,,,,,,,up,0.5531,,1,1.5,390.9205,0,13,13,13,1,stimuli/bead_y.PNG,stimuli/bead_b.PNG,stimuli/bead_y.PNG,stimuli/bead_y.PNG,stimuli/bead_g.PNG,1,2,up
,,,amber mclaughlin,2023-10-10_10h33.46.794,Fish_Game,2023.1.3,Win32,58.02820171,,,,,,,,,,,,,15,,,,,,,,,,,,,,up,0.4019,,1,1.5,393.3422,0,14,14,14,1,stimuli/bead_y.PNG,stimuli/bead_y.PNG,stimuli/bead_b.PNG,stimuli/bead_y.PNG,stimuli/bead_y.PNG,1,2,up
,,,amber mclaughlin,2023-10-10_10h33.46.794,Fish_Game,2023.1.3,Win32,58.02820171,,,,,,,,,,,,,1,,,,,,,,,,,,5,1condition/mainTrials5.xlsx,left,1.0186,,1,1.5,401.3733,0,0,0,0,1,stimuli/bead_b.PNG,stimuli/blank.jpg,stimuli/blank.jpg,stimuli/blank.jpg,stimuli/blank.jpg,0,1,left
,,,amber mclaughlin,2023-10-10_10h33.46.794,Fish_Game,2023.1.3,Win32,58.02820171,,,,,,,,,,,,,2,,,,,,,,,,,,,,left,0.9633,,1,0.5,403.3451,0,1,1,1,1,stimuli/bead_b.PNG,stimuli/bead_b.PNG,stimuli/blank.jpg,stimuli/blank.jpg,stimuli/blank.jpg,0,1,left
,,,amber mclaughlin,2023-10-10_10h33.46.794,Fish_Game,2023.1.3,Win32,58.02820171,,,,,,,,,,,,,3,,,,,,,,,,,,,,left,0.4194,,1,1,405.2988,0,2,2,2,1,stimuli/bead_y.PNG,stimuli/bead_b.PNG,stimuli/bead_b.PNG,stimuli/blank.jpg,stimuli/blank.jpg,0,1,left
,,,amber mclaughlin,2023-10-10_10h33.46.794,Fish_Game,2023.1.3,Win32,58.02820171,,,,,,,,,,,,,4,,,,,,,,,,,,,,left,1.0862,,1,0.5,407.4023,0,3,3,3,1,stimuli/bead_b.PNG,stimuli/bead_y.PNG,stimuli/bead_b.PNG,stimuli/bead_b.PNG,stimuli/blank.jpg,0,1,left
,,,amber mclaughlin,2023-10-10_10h33.46.794,Fish_Game,2023.1.3,Win32,58.02820171,,,,,,,,,,,,,5,,,,,,,,,,,,,,left,0.5031,,1,1,409.4233,0,4,4,4,1,stimuli/bead_b.PNG,stimuli/bead_b.PNG,stimuli/bead_y.PNG,stimuli/bead_b.PNG,stimuli/bead_b.PNG,0,1,left
,,,amber mclaughlin,2023-10-10_10h33.46.794,Fish_Game,2023.1.3,Win32,58.02820171,,,,,,,,,,,,,6,,,,,,,,,,,,,,left,0.3517,,0,0.5,410.8094,0,5,5,5,1,stimuli/bead_g.PNG,stimuli/bead_b.PNG,stimuli/bead_b.PNG,stimuli/bead_y.PNG,stimuli/bead_b.PNG,2,3,right
,,,amber mclaughlin,2023-10-10_10h33.46.794,Fish_Game,2023.1.3,Win32,58.02820171,,,,,,,,,,,,,7,,,,,,,,,,,,,,left,0.4526,,0,0.5,412.2792,0,6,6,6,1,stimuli/bead_g.PNG,stimuli/bead_g.PNG,stimuli/bead_b.PNG,stimuli/bead_b.PNG,stimuli/bead_y.PNG,2,2,right
,,,amber mclaughlin,2023-10-10_10h33.46.794,Fish_Game,2023.1.3,Win32,58.02820171,,,,,,,,,,,,,8,,,,,,,,,,,,,,right,0.2669,,1,1,414.0804,0,7,7,7,1,stimuli/bead_b.PNG,stimuli/bead_g.PNG,stimuli/bead_g.PNG,stimuli/bead_b.PNG,stimuli/bead_b.PNG,2,2,right
,,,amber mclaughlin,2023-10-10_10h33.46.794,Fish_Game,2023.1.3,Win32,58.02820171,,,,,,,,,,,,,9,,,,,,,,,,,,,,right,0.6856,,1,0.5,415.785,0,8,8,8,1,stimuli/bead_g.PNG,stimuli/bead_b.PNG,stimuli/bead_g.PNG,stimuli/bead_g.PNG,stimuli/bead_b.PNG,2,2,right
,,,amber mclaughlin,2023-10-10_10h33.46.794,Fish_Game,2023.1.3,Win32,58.02820171,,,,,,,,,,,,,10,,,,,,,,,,,,,,right,0.6523,,1,0.5,417.455,0,9,9,9,1,stimuli/bead_b.PNG,stimuli/bead_g.PNG,stimuli/bead_b.PNG,stimuli/bead_g.PNG,stimuli/bead_g.PNG,2,2,right
,,,amber mclaughlin,2023-10-10_10h33.46.794,Fish_Game,2023.1.3,Win32,58.02820171,,,,,,,,,,,,,11,,,,,,,,,,,,,,right,0.4179,,1,0.5,418.8911,0,10,10,10,1,stimuli/bead_g.PNG,stimuli/bead_b.PNG,stimuli/bead_g.PNG,stimuli/bead_b.PNG,stimuli/bead_g.PNG,2,2,right
,,,amber mclaughlin,2023-10-10_10h33.46.794,Fish_Game,2023.1.3,Win32,58.02820171,,,,,,,,,,,,,12,,,,,,,,,,,,,,right,0.3846,,1,1.5,421.2967,0,11,11,11,1,stimuli/bead_g.PNG,stimuli/bead_g.PNG,stimuli/bead_b.PNG,stimuli/bead_g.PNG,stimuli/bead_b.PNG,2,2,right
,,,amber mclaughlin,2023-10-10_10h33.46.794,Fish_Game,2023.1.3,Win32,58.02820171,,,,,,,,,,,,,13,,,,,,,,,,,,,,right,0.5351,,1,0.5,422.8656,0,12,12,12,1,stimuli/bead_g.PNG,stimuli/bead_g.PNG,stimuli/bead_g.PNG,stimuli/bead_b.PNG,stimuli/bead_g.PNG,2,3,right
,,,amber mclaughlin,2023-10-10_10h33.46.794,Fish_Game,2023.1.3,Win32,58.02820171,,,,,,,,,,,,,14,,,,,,,,,,,,,,right,0.301,,1,1,424.7017,0,13,13,13,1,stimuli/bead_y.PNG,stimuli/bead_g.PNG,stimuli/bead_g.PNG,stimuli/bead_g.PNG,stimuli/bead_b.PNG,2,3,right
,,,amber mclaughlin,2023-10-10_10h33.46.794,Fish_Game,2023.1.3,Win32,58.02820171,,,,,,,,,,,,,15,,,,,,,,,,,,,,right,1.1529,,1,0.5,426.8737,0,14,14,14,1,stimuli/bead_g.PNG,stimuli/bead_y.PNG,stimuli/bead_g.PNG,stimuli/bead_g.PNG,stimuli/bead_g.PNG,2,3,right
,,,amber mclaughlin,2023-10-10_10h33.46.794,Fish_Game,2023.1.3,Win32,58.02820171,,,,,,,,,,,,,1,,,,,,,,,,,,6,1condition/mainTrials6.xlsx,left,0.9018,,0,0.5,433.8023,0,0,0,0,1,stimuli/bead_b.PNG,stimuli/blank.jpg,stimuli/blank.jpg,stimuli/blank.jpg,stimuli/blank.jpg,1,2,up
,,,amber mclaughlin,2023-10-10_10h33.46.794,Fish_Game,2023.1.3,Win32,58.02820171,,,,,,,,,,,,,2,,,,,,,,,,,,,,up,1.4035,,1,1.5,437.2278,0,1,1,1,1,stimuli/bead_y.PNG,stimuli/bead_b.PNG,stimuli/blank.jpg,stimuli/blank.jpg,stimuli/blank.jpg,1,2,up
,,,amber mclaughlin,2023-10-10_10h33.46.794,Fish_Game,2023.1.3,Win32,58.02820171,,,,,,,,,,,,,3,,,,,,,,,,,,,,up,0.5685,,1,1,439.3316,0,2,2,2,1,stimuli/bead_y.PNG,stimuli/bead_y.PNG,stimuli/bead_b.PNG,stimuli/blank.jpg,stimuli/blank.jpg,1,2,up
,,,amber mclaughlin,2023-10-10_10h33.46.794,Fish_Game,2023.1.3,Win32,58.02820171,,,,,,,,,,,,,4,,,,,,,,,,,,,,up,0.3849,,1,0.5,440.7508,0,3,3,3,1,stimuli/bead_y.PNG,stimuli/bead_y.PNG,stimuli/bead_y.PNG,stimuli/bead_b.PNG,stimuli/blank.jpg,1,2,up
,,,amber mclaughlin,2023-10-10_10h33.46.794,Fish_Game,2023.1.3,Win32,58.02820171,,,,,,,,,,,,,5,,,,,,,,,,,,,,up,0.5021,,0,0.5,442.2707,0,4,4,4,1,stimuli/bead_g.PNG,stimuli/bead_y.PNG,stimuli/bead_y.PNG,stimuli/bead_y.PNG,stimuli/bead_b.PNG,2,3,right
,,,amber mclaughlin,2023-10-10_10h33.46.794,Fish_Game,2023.1.3,Win32,58.02820171,,,,,,,,,,,,,6,,,,,,,,,,,,,,right,0.8349,,1,0.5,444.1216,0,5,5,5,1,stimuli/bead_g.PNG,stimuli/bead_g.PNG,stimuli/bead_y.PNG,stimuli/bead_y.PNG,stimuli/bead_y.PNG,2,3,right
,,,amber mclaughlin,2023-10-10_10h33.46.794,Fish_Game,2023.1.3,Win32,58.02820171,,,,,,,,,,,,,7,,,,,,,,,,,,,,right,0.5689,,1,0.5,445.7282,0,6,6,6,1,stimuli/bead_y.PNG,stimuli/bead_g.PNG,stimuli/bead_g.PNG,stimuli/bead_y.PNG,stimuli/bead_y.PNG,2,3,right
,,,amber mclaughlin,2023-10-10_10h33.46.794,Fish_Game,2023.1.3,Win32,58.02820171,,,,,,,,,,,,,8,,,,,,,,,,,,,,right,0.551,,1,0.5,447.296,0,7,7,7,1,stimuli/bead_g.PNG,stimuli/bead_y.PNG,stimuli/bead_g.PNG,stimuli/bead_g.PNG,stimuli/bead_y.PNG,2,3,right
,,,amber mclaughlin,2023-10-10_10h33.46.794,Fish_Game,2023.1.3,Win32,58.02820171,,,,,,,,,,,,,9,,,,,,,,,,,,,,right,0.4007,,1,1,449.2171,0,8,8,8,1,stimuli/bead_g.PNG,stimuli/bead_g.PNG,stimuli/bead_y.PNG,stimuli/bead_g.PNG,stimuli/bead_g.PNG,2,3,right
,,,amber mclaughlin,2023-10-10_10h33.46.794,Fish_Game,2023.1.3,Win32,58.02820171,,,,,,,,,,,,,10,,,,,,,,,,,,,,right,0.4192,,1,0.5,450.6699,0,9,9,9,1,stimuli/bead_g.PNG,stimuli/bead_g.PNG,stimuli/bead_g.PNG,stimuli/bead_y.PNG,stimuli/bead_g.PNG,2,3,right
,,,amber mclaughlin,2023-10-10_10h33.46.794,Fish_Game,2023.1.3,Win32,58.02820171,,,,,,,,,,,,,11,,,,,,,,,,,,,,right,0.2678,,0,1.5,452.9571,0,10,10,10,1,stimuli/bead_y.PNG,stimuli/bead_g.PNG,stimuli/bead_g.PNG,stimuli/bead_g.PNG,stimuli/bead_y.PNG,1,2,up
,,,amber mclaughlin,2023-10-10_10h33.46.794,Fish_Game,2023.1.3,Win32,58.02820171,,,,,,,,,,,,,12,,,,,,,,,,,,,,right,0.1002,,0,1.5,455.0772,0,11,11,11,1,stimuli/bead_b.PNG,stimuli/bead_y.PNG,stimuli/bead_g.PNG,stimuli/bead_g.PNG,stimuli/bead_g.PNG,1,2,up
,,,amber mclaughlin,2023-10-10_10h33.46.794,Fish_Game,2023.1.3,Win32,58.02820171,,,,,,,,,,,,,13,,,,,,,,,,,,,,right,0.7354,,0,1.5,457.8329,0,12,12,12,1,stimuli/bead_y.PNG,stimuli/bead_b.PNG,stimuli/bead_y.PNG,stimuli/bead_g.PNG,stimuli/bead_g.PNG,1,2,up
,,,amber mclaughlin,2023-10-10_10h33.46.794,Fish_Game,2023.1.3,Win32,58.02820171,,,,,,,,,,,,,14,,,,,,,,,,,,,,up,0.8195,,1,1,460.1886,0,13,13,13,1,stimuli/bead_y.PNG,stimuli/bead_y.PNG,stimuli/bead_b.PNG,stimuli/bead_y.PNG,stimuli/bead_g.PNG,1,2,up
,,,amber mclaughlin,2023-10-10_10h33.46.794,Fish_Game,2023.1.3,Win32,58.02820171,,,,,,,,,,,,,15,,,,,,,,,,,,,,up,1.136,,1,0.5,462.3425,0,14,14,14,1,stimuli/bead_y.PNG,stimuli/bead_y.PNG,stimuli/bead_y.PNG,stimuli/bead_b.PNG,stimuli/bead_y.PNG,1,2,up
,,,amber mclaughlin,2023-10-10_10h33.46.794,Fish_Game,2023.1.3,Win32,58.02820171,,,,,,,,,,,,,1,,,,,,,,,,,,7,1condition/mainTrials7.xlsx,left,0.1685,,0,1.5,469.5402,0,0,0,0,1,stimuli/bead_y.PNG,stimuli/blank.jpg,stimuli/blank.jpg,stimuli/blank.jpg,stimuli/blank.jpg,1,2,up
,,,amber mclaughlin,2023-10-10_10h33.46.794,Fish_Game,2023.1.3,Win32,58.02820171,,,,,,,,,,,,,2,,,,,,,,,,,,,,up,0.7194,,1,0.5,471.2779,0,1,1,1,1,stimuli/bead_y.PNG,stimuli/bead_y.PNG,stimuli/blank.jpg,stimuli/blank.jpg,stimuli/blank.jpg,1,2,up
,,,amber mclaughlin,2023-10-10_10h33.46.794,Fish_Game,2023.1.3,Win32,58.02820171,,,,,,,,,,,,,3,,,,,,,,,,,,,,up,0.518,,1,1.5,473.814,0,2,2,2,1,stimuli/bead_g.PNG,stimuli/bead_y.PNG,stimuli/bead_y.PNG,stimuli/blank.jpg,stimuli/blank.jpg,1,2,up
,,,amber mclaughlin,2023-10-10_10h33.46.794,Fish_Game,2023.1.3,Win32,58.02820171,,,,,,,,,,,,,4,,,,,,,,,,,,,,up,0.7859,,1,1.5,476.62,0,3,3,3,1,stimuli/bead_y.PNG,stimuli/bead_g.PNG,stimuli/bead_y.PNG,stimuli/bead_y.PNG,stimuli/blank.jpg,1,2,up
,,,amber mclaughlin,2023-10-10_10h33.46.794,Fish_Game,2023.1.3,Win32,58.02820171,,,,,,,,,,,,,5,,,,,,,,,,,,,,up,0.3845,,1,1.5,479.0246,0,4,4,4,1,stimuli/bead_y.PNG,stimuli/bead_y.PNG,stimuli/bead_g.PNG,stimuli/bead_y.PNG,stimuli/bead_y.PNG,1,2,up
,,,amber mclaughlin,2023-10-10_10h33.46.794,Fish_Game,2023.1.3,Win32,58.02820171,,,,,,,,,,,,,6,,,,,,,,,,,,,,up,0.5186,,1,0.5,480.5787,0,5,5,5,1,stimuli/bead_y.PNG,stimuli/bead_y.PNG,stimuli/bead_y.PNG,stimuli/bead_g.PNG,stimuli/bead_y.PNG,1,2,up
,,,amber mclaughlin,2023-10-10_10h33.46.794,Fish_Game,2023.1.3,Win32,58.02820171,,,,,,,,,,,,,7,,,,,,,,,,,,,,left,1.4692,,0,0.5,483.0814,0,6,6,6,1,stimuli/bead_b.PNG,stimuli/bead_y.PNG,stimuli/bead_y.PNG,stimuli/bead_y.PNG,stimuli/bead_g.PNG,1,2,up
,,,amber mclaughlin,2023-10-10_10h33.46.794,Fish_Game,2023.1.3,Win32,58.02820171,,,,,,,,,,,,,8,,,,,,,,,,,,,,up,0.8195,,1,0.5,484.9362,0,7,7,7,1,stimuli/bead_y.PNG,stimuli/bead_b.PNG,stimuli/bead_y.PNG,stimuli/bead_y.PNG,stimuli/bead_y.PNG,1,2,up
,,,amber mclaughlin,2023-10-10_10h33.46.794,Fish_Game,2023.1.3,Win32,58.02820171,,,,,,,,,,,,,9,,,,,,,,,,,,,,up,0.4003,,0,1.5,487.3564,0,8,8,8,1,stimuli/bead_y.PNG,stimuli/bead_y.PNG,stimuli/bead_b.PNG,stimuli/bead_y.PNG,stimuli/bead_y.PNG,1,2,right
,,,amber mclaughlin,2023-10-10_10h33.46.794,Fish_Game,2023.1.3,Win32,58.02820171,,,,,,,,,,,,,10,,,,,,,,,,,,,,up,0.3342,,0,1.5,489.7289,0,9,9,9,1,stimuli/bead_g.PNG,stimuli/bead_y.PNG,stimuli/bead_y.PNG,stimuli/bead_b.PNG,stimuli/bead_y.PNG,2,3,right
,,,amber mclaughlin,2023-10-10_10h33.46.794,Fish_Game,2023.1.3,Win32,58.02820171,,,,,,,,,,,,,11,,,,,,,,,,,,,,up,1.3206,,0,0.5,492.0671,0,10,10,10,1,stimuli/bead_g.PNG,stimuli/bead_g.PNG,stimuli/bead_y.PNG,stimuli/bead_y.PNG,stimuli/bead_b.PNG,2,3,right
,,,amber mclaughlin,2023-10-10_10h33.46.794,Fish_Game,2023.1.3,Win32,58.02820171,,,,,,,,,,,,,12,,,,,,,,,,,,,,up,0.4361,,0,0.5,493.5365,0,11,11,11,1,stimuli/bead_y.PNG,stimuli/bead_g.PNG,stimuli/bead_g.PNG,stimuli/bead_y.PNG,stimuli/bead_y.PNG,2,3,right
,,,amber mclaughlin,2023-10-10_10h33.46.794,Fish_Game,2023.1.3,Win32,58.02820171,,,,,,,,,,,,,13,,,,,,,,,,,,,,up,0.3519,,0,0.5,494.9058,0,12,12,12,1,stimuli/bead_g.PNG,stimuli/bead_y.PNG,stimuli/bead_g.PNG,stimuli/bead_g.PNG,stimuli/bead_y.PNG,2,3,right
,,,amber mclaughlin,2023-10-10_10h33.46.794,Fish_Game,2023.1.3,Win32,58.02820171,,,,,,,,,,,,,14,,,,,,,,,,,,,,up,0.0514,,0,0.5,495.9746,0,13,13,13,1,stimuli/bead_g.PNG,stimuli/bead_g.PNG,stimuli/bead_y.PNG,stimuli/bead_g.PNG,stimuli/bead_g.PNG,2,3,right
,,,amber mclaughlin,2023-10-10_10h33.46.794,Fish_Game,2023.1.3,Win32,58.02820171,,,,,,,,,,,,,15,,,,,,,,,,,,,,right,0.2684,,1,0.5,497.2771,0,14,14,14,1,stimuli/bead_g.PNG,stimuli/bead_g.PNG,stimuli/bead_g.PNG,stimuli/bead_y.PNG,stimuli/bead_g.PNG,2,3,right
,,,amber mclaughlin,2023-10-10_10h33.46.794,Fish_Game,2023.1.3,Win32,58.02820171,,,,,,,,,,,,,1,,,,,,,,,,,,8,1condition/mainTrials8.xlsx,up,0.7529,,0,0.5,504.0582,0,0,0,0,1,stimuli/bead_y.PNG,stimuli/blank.jpg,stimuli/blank.jpg,stimuli/blank.jpg,stimuli/blank.jpg,0,1,left
,,,amber mclaughlin,2023-10-10_10h33.46.794,Fish_Game,2023.1.3,Win32,58.02820171,,,,,,,,,,,,,2,,,,,,,,,,,,,,up,1.0201,,0,0.5,506.1105,0,1,1,1,1,stimuli/bead_b.PNG,stimuli/bead_y.PNG,stimuli/blank.jpg,stimuli/blank.jpg,stimuli/blank.jpg,0,1,left
,,,amber mclaughlin,2023-10-10_10h33.46.794,Fish_Game,2023.1.3,Win32,58.02820171,,,,,,,,,,,,,3,,,,,,,,,,,,,,up,0.9532,,0,1,508.5986,0,2,2,2,1,stimuli/bead_g.PNG,stimuli/bead_b.PNG,stimuli/bead_y.PNG,stimuli/blank.jpg,stimuli/blank.jpg,0,1,left
,,,amber mclaughlin,2023-10-10_10h33.46.794,Fish_Game,2023.1.3,Win32,58.02820171,,,,,,,,,,,,,4,,,,,,,,,,,,,,left,0.7867,,1,1,510.903,0,3,3,3,1,stimuli/bead_b.PNG,stimuli/bead_g.PNG,stimuli/bead_b.PNG,stimuli/bead_y.PNG,stimuli/blank.jpg,0,1,left
,,,amber mclaughlin,2023-10-10_10h33.46.794,Fish_Game,2023.1.3,Win32,58.02820171,,,,,,,,,,,,,5,,,,,,,,,,,,,,left,0.3004,,1,1.5,513.2242,0,4,4,4,1,stimuli/bead_b.PNG,stimuli/bead_b.PNG,stimuli/bead_g.PNG,stimuli/bead_b.PNG,stimuli/bead_y.PNG,0,1,left
,,,amber mclaughlin,2023-10-10_10h33.46.794,Fish_Game,2023.1.3,Win32,58.02820171,,,,,,,,,,,,,6,,,,,,,,,,,,,,left,0.4832,,1,0.5,514.7267,0,5,5,5,1,stimuli/bead_b.PNG,stimuli/bead_b.PNG,stimuli/bead_b.PNG,stimuli/bead_g.PNG,stimuli/bead_b.PNG,0,1,left
,,,amber mclaughlin,2023-10-10_10h33.46.794,Fish_Game,2023.1.3,Win32,58.02820171,,,,,,,,,,,,,7,,,,,,,,,,,,,,left,0.2855,,1,1,516.5306,0,6,6,6,1,stimuli/bead_g.PNG,stimuli/bead_b.PNG,stimuli/bead_b.PNG,stimuli/bead_b.PNG,stimuli/bead_g.PNG,0,1,left
,,,amber mclaughlin,2023-10-10_10h33.46.794,Fish_Game,2023.1.3,Win32,58.02820171,,,,,,,,,,,,,8,,,,,,,,,,,,,,left,0.4523,,1,1,518.5018,0,7,7,7,1,stimuli/bead_b.PNG,stimuli/bead_g.PNG,stimuli/bead_b.PNG,stimuli/bead_b.PNG,stimuli/bead_b.PNG,0,1,left
,,,amber mclaughlin,2023-10-10_10h33.46.794,Fish_Game,2023.1.3,Win32,58.02820171,,,,,,,,,,,,,9,,,,,,,,,,,,,,left,0.4519,,1,1.5,520.9727,0,8,8,8,1,stimuli/bead_y.PNG,stimuli/bead_b.PNG,stimuli/bead_g.PNG,stimuli/bead_b.PNG,stimuli/bead_b.PNG,0,1,left
,,,amber mclaughlin,2023-10-10_10h33.46.794,Fish_Game,2023.1.3,Win32,58.02820171,,,,,,,,,,,,,10,,,,,,,,,,,,,,left,0.485,,1,1.5,523.4789,0,9,9,9,1,stimuli/bead_b.PNG,stimuli/bead_y.PNG,stimuli/bead_b.PNG,stimuli/bead_g.PNG,stimuli/bead_b.PNG,0,1,left
,,,amber mclaughlin,2023-10-10_10h33.46.794,Fish_Game,2023.1.3,Win32,58.02820171,,,,,,,,,,,,,11,,,,,,,,,,,,,,left,0.3842,,1,1.5,525.8821,0,10,10,10,1,stimuli/bead_b.PNG,stimuli/bead_b.PNG,stimuli/bead_y.PNG,stimuli/bead_b.PNG,stimuli/bead_g.PNG,0,1,left
,,,amber mclaughlin,2023-10-10_10h33.46.794,Fish_Game,2023.1.3,Win32,58.02820171,,,,,,,,,,,,,12,,,,,,,,,,,,,,left,0.6197,,0,0.5,527.5191,0,11,11,11,1,stimuli/bead_y.PNG,stimuli/bead_b.PNG,stimuli/bead_b.PNG,stimuli/bead_y.PNG,stimuli/bead_b.PNG,1,2,up
,,,amber mclaughlin,2023-10-10_10h33.46.794,Fish_Game,2023.1.3,Win32,58.02820171,,,,,,,,,,,,,13,,,,,,,,,,,,,,left,0.3511,,0,1.5,529.8899,0,12,12,12,1,stimuli/bead_y.PNG,stimuli/bead_y.PNG,stimuli/bead_b.PNG,stimuli/bead_b.PNG,stimuli/bead_y.PNG,1,2,up
,,,amber mclaughlin,2023-10-10_10h33.46.794,Fish_Game,2023.1.3,Win32,58.02820171,,,,,,,,,,,,,14,,,,,,,,,,,,,,up,0.3692,,1,1.5,532.2784,0,13,13,13,1,stimuli/bead_y.PNG,stimuli/bead_y.PNG,stimuli/bead_y.PNG,stimuli/bead_b.PNG,stimuli/bead_b.PNG,1,2,up
,,,amber mclaughlin,2023-10-10_10h33.46.794,Fish_Game,2023.1.3,Win32,58.02820171,,,,,,,,,,,,,15,,,,,,,,,,,,,,up,0.3196,,1,1.5,534.6171,0,14,14,14,1,stimuli/bead_g.PNG,stimuli/bead_y.PNG,stimuli/bead_y.PNG,stimuli/bead_y.PNG,stimuli/bead_b.PNG,1,2,up
,,,amber mclaughlin,2023-10-10_10h33.46.794,Fish_Game,2023.1.3,Win32,58.02820171,,,,,,,,,,,,,1,,,,,,,,,,,,9,1condition/mainTrials9.xlsx,right,0.9519,,1,1,542.0958,0,0,0,0,1,stimuli/bead_g.PNG,stimuli/blank.jpg,stimuli/blank.jpg,stimuli/blank.jpg,stimuli/blank.jpg,2,3,right
,,,amber mclaughlin,2023-10-10_10h33.46.794,Fish_Game,2023.1.3,Win32,58.02820171,,,,,,,,,,,,,2,,,,,,,,,,,,,,right,0.5008,,1,1.5,544.6175,0,1,1,1,1,stimuli/bead_g.PNG,stimuli/bead_g.PNG,stimuli/blank.jpg,stimuli/blank.jpg,stimuli/blank.jpg,2,3,right
,,,amber mclaughlin,2023-10-10_10h33.46.794,Fish_Game,2023.1.3,Win32,58.02820171,,,,,,,,,,,,,3,,,,,,,,,,,,,,right,1.7041,,1,0.5,547.3565,0,2,2,2,1,stimuli/bead_b.PNG,stimuli/bead_g.PNG,stimuli/bead_g.PNG,stimuli/blank.jpg,stimuli/blank.jpg,2,3,right
,,,amber mclaughlin,2023-10-10_10h33.46.794,Fish_Game,2023.1.3,Win32,58.02820171,,,,,,,,,,,,,4,,,,,,,,,,,,,,right,0.3841,,1,1,549.2611,0,3,3,3,1,stimuli/bead_g.PNG,stimuli/bead_b.PNG,stimuli/bead_g.PNG,stimuli/bead_g.PNG,stimuli/blank.jpg,2,3,right
,,,amber mclaughlin,2023-10-10_10h33.46.794,Fish_Game,2023.1.3,Win32,58.02820171,,,,,,,,,,,,,5,,,,,,,,,,,,,,right,1.8889,,1,1,552.6677,0,4,4,4,1,stimuli/bead_g.PNG,stimuli/bead_g.PNG,stimuli/bead_b.PNG,stimuli/bead_g.PNG,stimuli/bead_g.PNG,2,3,right
,,,amber mclaughlin,2023-10-10_10h33.46.794,Fish_Game,2023.1.3,Win32,58.02820171,,,,,,,,,,,,,6,,,,,,,,,,,,,,right,0.4511,,1,0.5,554.1368,0,5,5,5,1,stimuli/bead_b.PNG,stimuli/bead_g.PNG,stimuli/bead_g.PNG,stimuli/bead_b.PNG,stimuli/bead_g.PNG,2,3,right
,,,amber mclaughlin,2023-10-10_10h33.46.794,Fish_Game,2023.1.3,Win32,58.02820171,,,,,,,,,,,,,7,,,,,,,,,,,,,,right,0.2009,,1,1.5,556.3745,0,6,6,6,1,stimuli/bead_g.PNG,stimuli/bead_b.PNG,stimuli/bead_g.PNG,stimuli/bead_g.PNG,stimuli/bead_b.PNG,2,3,right
,,,amber mclaughlin,2023-10-10_10h33.46.794,Fish_Game,2023.1.3,Win32,58.02820171,,,,,,,,,,,,,8,,,,,,,,,,,,,,right,0.3348,,1,1.5,558.7287,0,7,7,7,1,stimuli/bead_g.PNG,stimuli/bead_g.PNG,stimuli/bead_b.PNG,stimuli/bead_g.PNG,stimuli/bead_g.PNG,2,3,right
,,,amber mclaughlin,2023-10-10_10h33.46.794,Fish_Game,2023.1.3,Win32,58.02820171,,,,,,,,,,,,,9,,,,,,,,,,,,,,right,1.2193,,0,0.5,560.9659,0,8,8,8,1,stimuli/bead_b.PNG,stimuli/bead_g.PNG,stimuli/bead_g.PNG,stimuli/bead_b.PNG,stimuli/bead_g.PNG,0,1,left
,,,amber mclaughlin,2023-10-10_10h33.46.794,Fish_Game,2023.1.3,Win32,58.02820171,,,,,,,,,,,,,10,,,,,,,,,,,,,,right,0.3509,,0,1,562.8357,0,9,9,9,1,stimuli/bead_y.PNG,stimuli/bead_b.PNG,stimuli/bead_g.PNG,stimuli/bead_g.PNG,stimuli/bead_b.PNG,0,1,left
,,,amber mclaughlin,2023-10-10_10h33.46.794,Fish_Game,2023.1.3,Win32,58.02820171,,,,,,,,,,,,,11,,,,,,,,,,,,,,left,0.6041,,1,1.5,565.4788,0,10,10,10,1,stimuli/bead_b.PNG,stimuli/bead_y.PNG,stimuli/bead_b.PNG,stimuli/bead_g.PNG,stimuli/bead_g.PNG,0,1,left
,,,amber mclaughlin,2023-10-10_10h33.46.794,Fish_Game,2023.1.3,Win32,58.02820171,,,,,,,,,,,,,12,,,,,,,,,,,,,,left,0.4678,,1,1,567.4784,0,11,11,11,1,stimuli/bead_b.PNG,stimuli/bead_b.PNG,stimuli/bead_y.PNG,stimuli/bead_b.PNG,stimuli/bead_g.PNG,0,1,left
,,,amber mclaughlin,2023-10-10_10h33.46.794,Fish_Game,2023.1.3,Win32,58.02820171,,,,,,,,,,,,,13,,,,,,,,,,,,,,left,0.4026,,1,1.5,569.9018,0,12,12,12,1,stimuli/bead_b.PNG,stimuli/bead_b.PNG,stimuli/bead_b.PNG,stimuli/bead_y.PNG,stimuli/bead_b.PNG,0,1,left
,,,amber mclaughlin,2023-10-10_10h33.46.794,Fish_Game,2023.1.3,Win32,58.02820171,,,,,,,,,,,,,14,,,,,,,,,,,,,,left,0.6519,,1,1,572.0718,0,13,13,13,1,stimuli/bead_g.PNG,stimuli/bead_b.PNG,stimuli/bead_b.PNG,stimuli/bead_b.PNG,stimuli/bead_y.PNG,0,1,left
,,,amber mclaughlin,2023-10-10_10h33.46.794,Fish_Game,2023.1.3,Win32,58.02820171,,,,,,,,,,,,,15,,,,,,,,,,,,,,left,0.4858,,1,0.5,573.5771,0,14,14,14,1,stimuli/bead_b.PNG,stimuli/bead_g.PNG,stimuli/bead_b.PNG,stimuli/bead_b.PNG,stimuli/bead_b.PNG,0,1,left
,,,amber mclaughlin,2023-10-10_10h33.46.794,Fish_Game,2023.1.3,Win32,58.02820171,,,,,,,,,,,,,1,,,,,,,,,,,,10,1condition/mainTrials10.xlsx,left,0.3018,,1,1,580.4054,0,0,0,0,1,stimuli/bead_y.PNG,stimuli/blank.jpg,stimuli/blank.jpg,stimuli/blank.jpg,stimuli/blank.jpg,0,1,left
,,,amber mclaughlin,2023-10-10_10h33.46.794,Fish_Game,2023.1.3,Win32,58.02820171,,,,,,,,,,,,,2,,,,,,,,,,,,,,left,0.8355,,1,0.5,582.2601,0,1,1,1,1,stimuli/bead_b.PNG,stimuli/bead_y.PNG,stimuli/blank.jpg,stimuli/blank.jpg,stimuli/blank.jpg,0,1,left
,,,amber mclaughlin,2023-10-10_10h33.46.794,Fish_Game,2023.1.3,Win32,58.02820171,,,,,,,,,,,,,3,,,,,,,,,,,,,,left,0.3508,,1,0.5,583.6437,0,2,2,2,1,stimuli/bead_b.PNG,stimuli/bead_b.PNG,stimuli/bead_y.PNG,stimuli/blank.jpg,stimuli/blank.jpg,0,1,left
,,,amber mclaughlin,2023-10-10_10h33.46.794,Fish_Game,2023.1.3,Win32,58.02820171,,,,,,,,,,,,,4,,,,,,,,,,,,,,left,0.2688,,1,1,585.4321,0,3,3,3,1,stimuli/bead_b.PNG,stimuli/bead_b.PNG,stimuli/bead_b.PNG,stimuli/bead_y.PNG,stimuli/blank.jpg,0,1,left
,,,amber mclaughlin,2023-10-10_10h33.46.794,Fish_Game,2023.1.3,Win32,58.02820171,,,,,,,,,,,,,5,,,,,,,,,,,,,,left,0.2845,,1,1.5,587.7353,0,4,4,4,1,stimuli/bead_b.PNG,stimuli/bead_b.PNG,stimuli/bead_b.PNG,stimuli/bead_b.PNG,stimuli/bead_y.PNG,0,1,left
,,,amber mclaughlin,2023-10-10_10h33.46.794,Fish_Game,2023.1.3,Win32,58.02820171,,,,,,,,,,,,,6,,,,,,,,,,,,,,left,0.2011,,1,1.5,589.9572,0,5,5,5,1,stimuli/bead_g.PNG,stimuli/bead_b.PNG,stimuli/bead_b.PNG,stimuli/bead_b.PNG,stimuli/bead_b.PNG,0,1,left
,,,amber mclaughlin,2023-10-10_10h33.46.794,Fish_Game,2023.1.3,Win32,58.02820171,,,,,,,,,,,,,7,,,,,,,,,,,,,,left,0.6352,,1,1.5,592.6122,0,6,6,6,1,stimuli/bead_b.PNG,stimuli/bead_g.PNG,stimuli/bead_b.PNG,stimuli/bead_b.PNG,stimuli/bead_b.PNG,0,1,left
,,,amber mclaughlin,2023-10-10_10h33.46.794,Fish_Game,2023.1.3,Win32,58.02820171,,,,,,,,,,,,,8,,,,,,,,,,,,,,left,0.4004,,1,1,594.5315,0,7,7,7,1,stimuli/bead_b.PNG,stimuli/bead_b.PNG,stimuli/bead_g.PNG,stimuli/bead_b.PNG,stimuli/bead_b.PNG,0,1,left
,,,amber mclaughlin,2023-10-10_10h33.46.794,Fish_Game,2023.1.3,Win32,58.02820171,,,,,,,,,,,,,9,,,,,,,,,,,,,,right,0.5025,,0,1.5,597.0539,0,8,8,8,1,stimuli/bead_y.PNG,stimuli/bead_b.PNG,stimuli/bead_b.PNG,stimuli/bead_g.PNG,stimuli/bead_b.PNG,0,1,left
,,,amber mclaughlin,2023-10-10_10h33.46.794,Fish_Game,2023.1.3,Win32,58.02820171,,,,,,,,,,,,,10,,,,,,,,,,,,,,right,0.3519,,0,1.5,599.4266,0,9,9,9,1,stimuli/bead_b.PNG,stimuli/bead_y.PNG,stimuli/bead_b.PNG,stimuli/bead_b.PNG,stimuli/bead_g.PNG,0,1,left
,,,amber mclaughlin,2023-10-10_10h33.46.794,Fish_Game,2023.1.3,Win32,58.02820171,,,,,,,,,,,,,11,,,,,,,,,,,,,,right,0.6194,,1,0.5,601.0796,0,10,10,10,1,stimuli/bead_g.PNG,stimuli/bead_b.PNG,stimuli/bead_y.PNG,stimuli/bead_b.PNG,stimuli/bead_b.PNG,2,3,right
,,,amber mclaughlin,2023-10-10_10h33.46.794,Fish_Game,2023.1.3,Win32,58.02820171,,,,,,,,,,,,,12,,,,,,,,,,,,,,right,0.3023,,1,1,602.8998,0,11,11,11,1,stimuli/bead_b.PNG,stimuli/bead_g.PNG,stimuli/bead_b.PNG,stimuli/bead_y.PNG,stimuli/bead_b.PNG,2,3,right
,,,amber mclaughlin,2023-10-10_10h33.46.794,Fish_Game,2023.1.3,Win32,58.02820171,,,,,,,,,,,,,13,,,,,,,,,,,,,,right,0.3353,,1,1,604.7689,0,12,12,12,1,stimuli/bead_g.PNG,stimuli/bead_b.PNG,stimuli/bead_g.PNG,stimuli/bead_b.PNG,stimuli/bead_y.PNG,2,3,right
,,,amber mclaughlin,2023-10-10_10h33.46.794,Fish_Game,2023.1.3,Win32,58.02820171,,,,,,,,,,,,,14,,,,,,,,,,,,,,right,0.3183,,1,1,606.6054,0,13,13,13,1,stimuli/bead_g.PNG,stimuli/bead_g.PNG,stimuli/bead_b.PNG,stimuli/bead_g.PNG,stimuli/bead_b.PNG,2,3,right
,,,amber mclaughlin,2023-10-10_10h33.46.794,Fish_Game,2023.1.3,Win32,58.02820171,,,,,,,,,,,,,15,,,,,,,,,,,,,,right,0.3028,,1,1,608.4269,0,14,14,14,1,stimuli/bead_g.PNG,stimuli/bead_g.PNG,stimuli/bead_g.PNG,stimuli/bead_b.PNG,stimuli/bead_g.PNG,2,3,right
