welcome_key.keys,welcome_key.rt,welcome_key.duration,participant,date,expName,psychopyVersion,OS,frameRate,ins1_key.keys,ins1_key.rt,ins1_key.duration,key_resp_2.keys,key_resp_2.rt,key_resp_2.duration,fish_key_2.corr,prac_trials.thisRepN,prac_trials.thisTrialN,prac_trials.thisN,prac_trials.thisIndex,prac_trials.ran,trial,fish1_p,fish2_p,fish3_p,fish4_p,fish5_p,pond_p,pond_p2,pond_p3,ExpStart_key.keys,ExpStart_key.rt,ExpStart_key.duration,block number,block assignment,fish_key_button.keys,fish_key_button.rt,fish_key_button.duration,fish_key.corr,fish_interval,key_resp_time,trials.thisRepN,trials.thisTrialN,trials.thisN,trials.thisIndex,trials.ran,fish1,fish2,fish3,fish4,fish5,pond,pond2,pond3
space,2.3846,,Anusha,2023-10-10_13h44.55.508,Fish_Game,2023.1.3,MacIntel,60.0024001,,,,,,,,,,,,,,,,,,,,,,,,,,,,,,,,,,,,,,,,,,,,,
,,,Anusha,2023-10-10_13h44.55.508,Fish_Game,2023.1.3,MacIntel,60.0024001,,,,,,,,,,,,,,,,,,,,,,,,,,,,,,,,,,,,,,,,,,,,,
,,,Anusha,2023-10-10_13h44.55.508,Fish_Game,2023.1.3,MacIntel,60.0024001,space,34.3295,,,,,,,,,,,,,,,,,,,,,,,,,,,,,,,,,,,,,,,,,,,
,,,Anusha,2023-10-10_13h44.55.508,Fish_Game,2023.1.3,MacIntel,60.0024001,,,,,,,,,,,,,,,,,,,,,,,,,,,,,,,,,,,,,,,,,,,,,
,,,Anusha,2023-10-10_13h44.55.508,Fish_Game,2023.1.3,MacIntel,60.0024001,,,,,,,,,,,,,,,,,,,,,,,,,,,,,,,,,,,,,,,,,,,,,
,,,Anusha,2023-10-10_13h44.55.508,Fish_Game,2023.1.3,MacIntel,60.0024001,,,,up,0.4169,,0,0,0,0,0,1,1,stimuli/bead_b.PNG,stimuli/blank.jpg,stimuli/blank.jpg,stimuli/blank.jpg,stimuli/blank.jpg,0,1,left,,,,,,,,,,,,,,,,,,,,,,,,
,,,Anusha,2023-10-10_13h44.55.508,Fish_Game,2023.1.3,MacIntel,60.0024001,,,,up,0.0836,,0,0,1,1,1,1,2,stimuli/bead_b.PNG,stimuli/bead_b.PNG,stimuli/blank.jpg,stimuli/blank.jpg,stimuli/blank.jpg,0,1,left,,,,,,,,,,,,,,,,,,,,,,,,
,,,Anusha,2023-10-10_13h44.55.508,Fish_Game,2023.1.3,MacIntel,60.0024001,,,,,,,,0,2,2,2,1,3,stimuli/bead_g.PNG,stimuli/bead_b.PNG,stimuli/bead_b.PNG,stimuli/blank.jpg,stimuli/blank.jpg,0,1,left,,,,,,,,,,,,,,,,,,,,,,,,
,,,Anusha,2023-10-10_13h44.55.508,Fish_Game,2023.1.3,MacIntel,60.0024001,,,,left,0.6497,,1,0,3,3,3,1,4,stimuli/bead_b.PNG,stimuli/bead_g.PNG,stimuli/bead_b.PNG,stimuli/bead_b.PNG,stimuli/blank.jpg,0,1,left,,,,,,,,,,,,,,,,,,,,,,,,
,,,Anusha,2023-10-10_13h44.55.508,Fish_Game,2023.1.3,MacIntel,60.0024001,,,,right,0.1839,,0,0,4,4,4,1,5,stimuli/bead_b.PNG,stimuli/bead_b.PNG,stimuli/bead_g.PNG,stimuli/bead_b.PNG,stimuli/bead_b.PNG,0,1,left,,,,,,,,,,,,,,,,,,,,,,,,
,,,Anusha,2023-10-10_13h44.55.508,Fish_Game,2023.1.3,MacIntel,60.0024001,,,,left,0.1,,1,0,5,5,5,1,6,stimuli/bead_y.PNG,stimuli/bead_b.PNG,stimuli/bead_b.PNG,stimuli/bead_g.PNG,stimuli/bead_b.PNG,0,1,left,,,,,,,,,,,,,,,,,,,,,,,,
,,,Anusha,2023-10-10_13h44.55.508,Fish_Game,2023.1.3,MacIntel,60.0024001,,,,left,0.6167,,1,0,6,6,6,1,7,stimuli/bead_b.PNG,stimuli/bead_y.PNG,stimuli/bead_b.PNG,stimuli/bead_b.PNG,stimuli/bead_g.PNG,0,1,left,,,,,,,,,,,,,,,,,,,,,,,,
,,,Anusha,2023-10-10_13h44.55.508,Fish_Game,2023.1.3,MacIntel,60.0024001,,,,up,0.6322,,1,0,7,7,7,1,8,stimuli/bead_y.PNG,stimuli/bead_b.PNG,stimuli/bead_y.PNG,stimuli/bead_b.PNG,stimuli/bead_b.PNG,1,2,up,,,,,,,,,,,,,,,,,,,,,,,,
,,,Anusha,2023-10-10_13h44.55.508,Fish_Game,2023.1.3,MacIntel,60.0024001,,,,up,0.6342,,1,0,8,8,8,1,9,stimuli/bead_y.PNG,stimuli/bead_y.PNG,stimuli/bead_b.PNG,stimuli/bead_y.PNG,stimuli/bead_b.PNG,1,2,up,,,,,,,,,,,,,,,,,,,,,,,,
,,,Anusha,2023-10-10_13h44.55.508,Fish_Game,2023.1.3,MacIntel,60.0024001,,,,up,0.1507,,1,0,9,9,9,1,10,stimuli/bead_b.PNG,stimuli/bead_y.PNG,stimuli/bead_y.PNG,stimuli/bead_b.PNG,stimuli/bead_y.PNG,1,2,up,,,,,,,,,,,,,,,,,,,,,,,,
,,,Anusha,2023-10-10_13h44.55.508,Fish_Game,2023.1.3,MacIntel,60.0024001,,,,left,0.2834,,0,0,10,10,10,1,11,stimuli/bead_y.PNG,stimuli/bead_b.PNG,stimuli/bead_y.PNG,stimuli/bead_y.PNG,stimuli/bead_b.PNG,1,2,up,,,,,,,,,,,,,,,,,,,,,,,,
,,,Anusha,2023-10-10_13h44.55.508,Fish_Game,2023.1.3,MacIntel,60.0024001,,,,left,1.8842,,0,0,11,11,11,1,12,stimuli/bead_y.PNG,stimuli/bead_y.PNG,stimuli/bead_b.PNG,stimuli/bead_y.PNG,stimuli/bead_y.PNG,1,2,up,,,,,,,,,,,,,,,,,,,,,,,,
,,,Anusha,2023-10-10_13h44.55.508,Fish_Game,2023.1.3,MacIntel,60.0024001,,,,up,0.6349,,1,0,12,12,12,1,13,stimuli/bead_b.PNG,stimuli/bead_y.PNG,stimuli/bead_y.PNG,stimuli/bead_b.PNG,stimuli/bead_y.PNG,1,2,up,,,,,,,,,,,,,,,,,,,,,,,,
,,,Anusha,2023-10-10_13h44.55.508,Fish_Game,2023.1.3,MacIntel,60.0024001,,,,up,0.2878,,1,0,13,13,13,1,14,stimuli/bead_y.PNG,stimuli/bead_b.PNG,stimuli/bead_y.PNG,stimuli/bead_y.PNG,stimuli/bead_b.PNG,1,2,up,,,,,,,,,,,,,,,,,,,,,,,,
,,,Anusha,2023-10-10_13h44.55.508,Fish_Game,2023.1.3,MacIntel,60.0024001,,,,right,0.2894,,0,0,14,14,14,1,15,stimuli/bead_y.PNG,stimuli/bead_y.PNG,stimuli/bead_b.PNG,stimuli/bead_y.PNG,stimuli/bead_y.PNG,1,2,up,,,,,,,,,,,,,,,,,,,,,,,,
,,,Anusha,2023-10-10_13h44.55.508,Fish_Game,2023.1.3,MacIntel,60.0024001,,,,up,0.5703,,0,0,0,0,0,1,1,stimuli/bead_g.PNG,stimuli/blank.jpg,stimuli/blank.jpg,stimuli/blank.jpg,stimuli/blank.jpg,2,3,right,,,,,,,,,,,,,,,,,,,,,,,,
,,,Anusha,2023-10-10_13h44.55.508,Fish_Game,2023.1.3,MacIntel,60.0024001,,,,right,0.6176,,1,0,1,1,1,1,2,stimuli/bead_g.PNG,stimuli/bead_g.PNG,stimuli/blank.jpg,stimuli/blank.jpg,stimuli/blank.jpg,2,3,right,,,,,,,,,,,,,,,,,,,,,,,,
,,,Anusha,2023-10-10_13h44.55.508,Fish_Game,2023.1.3,MacIntel,60.0024001,,,,left,0.6398,,0,0,2,2,2,1,3,stimuli/bead_b.PNG,stimuli/bead_g.PNG,stimuli/bead_g.PNG,stimuli/blank.jpg,stimuli/blank.jpg,2,3,right,,,,,,,,,,,,,,,,,,,,,,,,
,,,Anusha,2023-10-10_13h44.55.508,Fish_Game,2023.1.3,MacIntel,60.0024001,,,,right,0.6391,,1,0,3,3,3,1,4,stimuli/bead_g.PNG,stimuli/bead_b.PNG,stimuli/bead_g.PNG,stimuli/bead_g.PNG,stimuli/blank.jpg,2,3,right,,,,,,,,,,,,,,,,,,,,,,,,
,,,Anusha,2023-10-10_13h44.55.508,Fish_Game,2023.1.3,MacIntel,60.0024001,,,,left,0.7353,,0,0,4,4,4,1,5,stimuli/bead_b.PNG,stimuli/bead_g.PNG,stimuli/bead_b.PNG,stimuli/bead_g.PNG,stimuli/bead_g.PNG,2,3,right,,,,,,,,,,,,,,,,,,,,,,,,
,,,Anusha,2023-10-10_13h44.55.508,Fish_Game,2023.1.3,MacIntel,60.0024001,,,,right,0.6666,,1,0,5,5,5,1,6,stimuli/bead_g.PNG,stimuli/bead_b.PNG,stimuli/bead_g.PNG,stimuli/bead_b.PNG,stimuli/bead_g.PNG,2,3,right,,,,,,,,,,,,,,,,,,,,,,,,
,,,Anusha,2023-10-10_13h44.55.508,Fish_Game,2023.1.3,MacIntel,60.0024001,,,,right,0.5673,,1,0,6,6,6,1,7,stimuli/bead_g.PNG,stimuli/bead_g.PNG,stimuli/bead_b.PNG,stimuli/bead_g.PNG,stimuli/bead_b.PNG,2,3,right,,,,,,,,,,,,,,,,,,,,,,,,
,,,Anusha,2023-10-10_13h44.55.508,Fish_Game,2023.1.3,MacIntel,60.0024001,,,,right,0.6845,,1,0,7,7,7,1,8,stimuli/bead_g.PNG,stimuli/bead_g.PNG,stimuli/bead_g.PNG,stimuli/bead_b.PNG,stimuli/bead_g.PNG,2,3,right,,,,,,,,,,,,,,,,,,,,,,,,
,,,Anusha,2023-10-10_13h44.55.508,Fish_Game,2023.1.3,MacIntel,60.0024001,,,,up,0.7492,,1,0,8,8,8,1,9,stimuli/bead_y.PNG,stimuli/bead_g.PNG,stimuli/bead_g.PNG,stimuli/bead_g.PNG,stimuli/bead_b.PNG,1,2,up,,,,,,,,,,,,,,,,,,,,,,,,
,,,Anusha,2023-10-10_13h44.55.508,Fish_Game,2023.1.3,MacIntel,60.0024001,,,,up,0.6499,,1,0,9,9,9,1,10,stimuli/bead_y.PNG,stimuli/bead_y.PNG,stimuli/bead_g.PNG,stimuli/bead_g.PNG,stimuli/bead_g.PNG,1,2,up,,,,,,,,,,,,,,,,,,,,,,,,
,,,Anusha,2023-10-10_13h44.55.508,Fish_Game,2023.1.3,MacIntel,60.0024001,,,,up,0.7008,,1,0,10,10,10,1,11,stimuli/bead_y.PNG,stimuli/bead_y.PNG,stimuli/bead_y.PNG,stimuli/bead_g.PNG,stimuli/bead_g.PNG,1,2,up,,,,,,,,,,,,,,,,,,,,,,,,
,,,Anusha,2023-10-10_13h44.55.508,Fish_Game,2023.1.3,MacIntel,60.0024001,,,,right,0.6335,,0,0,11,11,11,1,12,stimuli/bead_g.PNG,stimuli/bead_y.PNG,stimuli/bead_y.PNG,stimuli/bead_y.PNG,stimuli/bead_g.PNG,1,2,up,,,,,,,,,,,,,,,,,,,,,,,,
,,,Anusha,2023-10-10_13h44.55.508,Fish_Game,2023.1.3,MacIntel,60.0024001,,,,up,0.5674,,1,0,12,12,12,1,13,stimuli/bead_y.PNG,stimuli/bead_g.PNG,stimuli/bead_y.PNG,stimuli/bead_y.PNG,stimuli/bead_y.PNG,1,2,up,,,,,,,,,,,,,,,,,,,,,,,,
,,,Anusha,2023-10-10_13h44.55.508,Fish_Game,2023.1.3,MacIntel,60.0024001,,,,up,0.567,,1,0,13,13,13,1,14,stimuli/bead_y.PNG,stimuli/bead_y.PNG,stimuli/bead_g.PNG,stimuli/bead_y.PNG,stimuli/bead_y.PNG,1,2,up,,,,,,,,,,,,,,,,,,,,,,,,
,,,Anusha,2023-10-10_13h44.55.508,Fish_Game,2023.1.3,MacIntel,60.0024001,,,,left,0.6864,,0,0,14,14,14,1,15,stimuli/bead_b.PNG,stimuli/bead_y.PNG,stimuli/bead_y.PNG,stimuli/bead_g.PNG,stimuli/bead_y.PNG,1,2,up,,,,,,,,,,,,,,,,,,,,,,,,
,,,Anusha,2023-10-10_13h44.55.508,Fish_Game,2023.1.3,MacIntel,60.0024001,,,,,,,,,,,,,1,,,,,,,,,space,2.7277,,1,1condition/mainTrials10.xlsx,up,1.0983,,0,1.5,249.5475,0,0,0,0,1,stimuli/bead_y.PNG,stimuli/blank.jpg,stimuli/blank.jpg,stimuli/blank.jpg,stimuli/blank.jpg,0,1,left
,,,Anusha,2023-10-10_13h44.55.508,Fish_Game,2023.1.3,MacIntel,60.0024001,,,,,,,,,,,,,2,,,,,,,,,,,,,,left,0.5563,,1,1,251.6294,0,1,1,1,1,stimuli/bead_b.PNG,stimuli/bead_y.PNG,stimuli/blank.jpg,stimuli/blank.jpg,stimuli/blank.jpg,0,1,left
,,,Anusha,2023-10-10_13h44.55.508,Fish_Game,2023.1.3,MacIntel,60.0024001,,,,,,,,,,,,,3,,,,,,,,,,,,,,left,0.6222,,1,0.5,253.2784,0,2,2,2,1,stimuli/bead_b.PNG,stimuli/bead_b.PNG,stimuli/bead_y.PNG,stimuli/blank.jpg,stimuli/blank.jpg,0,1,left
,,,Anusha,2023-10-10_13h44.55.508,Fish_Game,2023.1.3,MacIntel,60.0024001,,,,,,,,,,,,,4,,,,,,,,,,,,,,left,0.4824,,1,1.5,255.7804,0,3,3,3,1,stimuli/bead_b.PNG,stimuli/bead_b.PNG,stimuli/bead_b.PNG,stimuli/bead_y.PNG,stimuli/blank.jpg,0,1,left
,,,Anusha,2023-10-10_13h44.55.508,Fish_Game,2023.1.3,MacIntel,60.0024001,,,,,,,,,,,,,5,,,,,,,,,,,,,,left,0.8513,,1,0.5,257.6464,0,4,4,4,1,stimuli/bead_b.PNG,stimuli/bead_b.PNG,stimuli/bead_b.PNG,stimuli/bead_b.PNG,stimuli/bead_y.PNG,0,1,left
,,,Anusha,2023-10-10_13h44.55.508,Fish_Game,2023.1.3,MacIntel,60.0024001,,,,,,,,,,,,,6,,,,,,,,,,,,,,right,0.7836,,0,1.5,260.4455,0,5,5,5,1,stimuli/bead_g.PNG,stimuli/bead_b.PNG,stimuli/bead_b.PNG,stimuli/bead_b.PNG,stimuli/bead_b.PNG,0,1,left
,,,Anusha,2023-10-10_13h44.55.508,Fish_Game,2023.1.3,MacIntel,60.0024001,,,,,,,,,,,,,7,,,,,,,,,,,,,,left,0.6997,,1,1.5,263.1798,0,6,6,6,1,stimuli/bead_b.PNG,stimuli/bead_g.PNG,stimuli/bead_b.PNG,stimuli/bead_b.PNG,stimuli/bead_b.PNG,0,1,left
,,,Anusha,2023-10-10_13h44.55.508,Fish_Game,2023.1.3,MacIntel,60.0024001,,,,,,,,,,,,,8,,,,,,,,,,,,,,left,0.7319,,1,1.5,265.9293,0,7,7,7,1,stimuli/bead_b.PNG,stimuli/bead_b.PNG,stimuli/bead_g.PNG,stimuli/bead_b.PNG,stimuli/bead_b.PNG,0,1,left
,,,Anusha,2023-10-10_13h44.55.508,Fish_Game,2023.1.3,MacIntel,60.0024001,,,,,,,,,,,,,9,,,,,,,,,,,,,,up,0.4335,,0,1,267.894,0,8,8,8,1,stimuli/bead_y.PNG,stimuli/bead_b.PNG,stimuli/bead_b.PNG,stimuli/bead_g.PNG,stimuli/bead_b.PNG,0,1,left
,,,Anusha,2023-10-10_13h44.55.508,Fish_Game,2023.1.3,MacIntel,60.0024001,,,,,,,,,,,,,10,,,,,,,,,,,,,,left,0.6668,,1,1.5,270.5796,0,9,9,9,1,stimuli/bead_b.PNG,stimuli/bead_y.PNG,stimuli/bead_b.PNG,stimuli/bead_b.PNG,stimuli/bead_g.PNG,0,1,left
,,,Anusha,2023-10-10_13h44.55.508,Fish_Game,2023.1.3,MacIntel,60.0024001,,,,,,,,,,,,,11,,,,,,,,,,,,,,right,0.852,,1,0.5,272.4469,0,10,10,10,1,stimuli/bead_g.PNG,stimuli/bead_b.PNG,stimuli/bead_y.PNG,stimuli/bead_b.PNG,stimuli/bead_b.PNG,2,3,right
,,,Anusha,2023-10-10_13h44.55.508,Fish_Game,2023.1.3,MacIntel,60.0024001,,,,,,,,,,,,,12,,,,,,,,,,,,,,left,0.7838,,0,0.5,274.2603,0,11,11,11,1,stimuli/bead_b.PNG,stimuli/bead_g.PNG,stimuli/bead_b.PNG,stimuli/bead_y.PNG,stimuli/bead_b.PNG,2,3,right
,,,Anusha,2023-10-10_13h44.55.508,Fish_Game,2023.1.3,MacIntel,60.0024001,,,,,,,,,,,,,13,,,,,,,,,,,,,,right,0.699,,1,1,276.4794,0,12,12,12,1,stimuli/bead_g.PNG,stimuli/bead_b.PNG,stimuli/bead_g.PNG,stimuli/bead_b.PNG,stimuli/bead_y.PNG,2,3,right
,,,Anusha,2023-10-10_13h44.55.508,Fish_Game,2023.1.3,MacIntel,60.0024001,,,,,,,,,,,,,14,,,,,,,,,,,,,,right,0.868,,1,0.5,278.3781,0,13,13,13,1,stimuli/bead_g.PNG,stimuli/bead_g.PNG,stimuli/bead_b.PNG,stimuli/bead_g.PNG,stimuli/bead_b.PNG,2,3,right
,,,Anusha,2023-10-10_13h44.55.508,Fish_Game,2023.1.3,MacIntel,60.0024001,,,,,,,,,,,,,15,,,,,,,,,,,,,,right,0.6997,,1,0.5,280.0959,0,14,14,14,1,stimuli/bead_g.PNG,stimuli/bead_g.PNG,stimuli/bead_g.PNG,stimuli/bead_b.PNG,stimuli/bead_g.PNG,2,3,right
,,,Anusha,2023-10-10_13h44.55.508,Fish_Game,2023.1.3,MacIntel,60.0024001,,,,,,,,,,,,,1,,,,,,,,,,,,2,1condition/mainTrials2.xlsx,up,0.682,,1,0.5,286.8276,0,0,0,0,1,stimuli/bead_y.PNG,stimuli/blank.jpg,stimuli/blank.jpg,stimuli/blank.jpg,stimuli/blank.jpg,1,2,up
,,,Anusha,2023-10-10_13h44.55.508,Fish_Game,2023.1.3,MacIntel,60.0024001,,,,,,,,,,,,,2,,,,,,,,,,,,,,left,0.6336,,0,1.5,289.4946,0,1,1,1,1,stimuli/bead_b.PNG,stimuli/bead_y.PNG,stimuli/blank.jpg,stimuli/blank.jpg,stimuli/blank.jpg,1,2,up
,,,Anusha,2023-10-10_13h44.55.508,Fish_Game,2023.1.3,MacIntel,60.0024001,,,,,,,,,,,,,3,,,,,,,,,,,,,,up,0.6326,,1,0.5,291.1481,0,2,2,2,1,stimuli/bead_y.PNG,stimuli/bead_b.PNG,stimuli/bead_y.PNG,stimuli/blank.jpg,stimuli/blank.jpg,1,2,up
,,,Anusha,2023-10-10_13h44.55.508,Fish_Game,2023.1.3,MacIntel,60.0024001,,,,,,,,,,,,,4,,,,,,,,,,,,,,up,0.4689,,1,1,293.1464,0,3,3,3,1,stimuli/bead_y.PNG,stimuli/bead_y.PNG,stimuli/bead_b.PNG,stimuli/bead_y.PNG,stimuli/blank.jpg,1,2,up
,,,Anusha,2023-10-10_13h44.55.508,Fish_Game,2023.1.3,MacIntel,60.0024001,,,,,,,,,,,,,5,,,,,,,,,,,,,,right,0.6495,,0,1.5,295.815,0,4,4,4,1,stimuli/bead_g.PNG,stimuli/bead_y.PNG,stimuli/bead_y.PNG,stimuli/bead_b.PNG,stimuli/bead_y.PNG,1,2,up
,,,Anusha,2023-10-10_13h44.55.508,Fish_Game,2023.1.3,MacIntel,60.0024001,,,,,,,,,,,,,6,,,,,,,,,,,,,,up,0.5652,,1,1,297.8969,0,5,5,5,1,stimuli/bead_y.PNG,stimuli/bead_g.PNG,stimuli/bead_y.PNG,stimuli/bead_y.PNG,stimuli/bead_b.PNG,1,2,up
,,,Anusha,2023-10-10_13h44.55.508,Fish_Game,2023.1.3,MacIntel,60.0024001,,,,,,,,,,,,,7,,,,,,,,,,,,,,left,0.6487,,1,1,300.0812,0,6,6,6,1,stimuli/bead_b.PNG,stimuli/bead_y.PNG,stimuli/bead_g.PNG,stimuli/bead_y.PNG,stimuli/bead_y.PNG,0,1,left
,,,Anusha,2023-10-10_13h44.55.508,Fish_Game,2023.1.3,MacIntel,60.0024001,,,,,,,,,,,,,8,,,,,,,,,,,,,,left,0.8164,,1,1,302.4124,0,7,7,7,1,stimuli/bead_b.PNG,stimuli/bead_b.PNG,stimuli/bead_y.PNG,stimuli/bead_g.PNG,stimuli/bead_y.PNG,0,1,left
,,,Anusha,2023-10-10_13h44.55.508,Fish_Game,2023.1.3,MacIntel,60.0024001,,,,,,,,,,,,,9,,,,,,,,,,,,,,up,0.7836,,0,0.5,304.2128,0,8,8,8,1,stimuli/bead_y.PNG,stimuli/bead_b.PNG,stimuli/bead_b.PNG,stimuli/bead_y.PNG,stimuli/bead_g.PNG,0,1,left
,,,Anusha,2023-10-10_13h44.55.508,Fish_Game,2023.1.3,MacIntel,60.0024001,,,,,,,,,,,,,10,,,,,,,,,,,,,,left,0.7662,,1,0.5,305.9956,0,9,9,9,1,stimuli/bead_b.PNG,stimuli/bead_y.PNG,stimuli/bead_b.PNG,stimuli/bead_b.PNG,stimuli/bead_y.PNG,0,1,left
,,,Anusha,2023-10-10_13h44.55.508,Fish_Game,2023.1.3,MacIntel,60.0024001,,,,,,,,,,,,,11,,,,,,,,,,,,,,left,0.5733,,1,0.5,307.5972,0,10,10,10,1,stimuli/bead_b.PNG,stimuli/bead_b.PNG,stimuli/bead_y.PNG,stimuli/bead_b.PNG,stimuli/bead_b.PNG,0,1,left
,,,Anusha,2023-10-10_13h44.55.508,Fish_Game,2023.1.3,MacIntel,60.0024001,,,,,,,,,,,,,12,,,,,,,,,,,,,,left,0.4839,,1,1,309.6129,0,11,11,11,1,stimuli/bead_b.PNG,stimuli/bead_b.PNG,stimuli/bead_b.PNG,stimuli/bead_y.PNG,stimuli/bead_b.PNG,0,1,left
,,,Anusha,2023-10-10_13h44.55.508,Fish_Game,2023.1.3,MacIntel,60.0024001,,,,,,,,,,,,,13,,,,,,,,,,,,,,right,0.7055,,0,0.5,311.3454,0,12,12,12,1,stimuli/bead_g.PNG,stimuli/bead_b.PNG,stimuli/bead_b.PNG,stimuli/bead_b.PNG,stimuli/bead_y.PNG,0,1,left
,,,Anusha,2023-10-10_13h44.55.508,Fish_Game,2023.1.3,MacIntel,60.0024001,,,,,,,,,,,,,14,,,,,,,,,,,,,,left,0.6391,,1,1,313.5115,0,13,13,13,1,stimuli/bead_b.PNG,stimuli/bead_g.PNG,stimuli/bead_b.PNG,stimuli/bead_b.PNG,stimuli/bead_b.PNG,0,1,left
,,,Anusha,2023-10-10_13h44.55.508,Fish_Game,2023.1.3,MacIntel,60.0024001,,,,,,,,,,,,,15,,,,,,,,,,,,,,left,0.5001,,1,1.5,316.0299,0,14,14,14,1,stimuli/bead_b.PNG,stimuli/bead_b.PNG,stimuli/bead_g.PNG,stimuli/bead_b.PNG,stimuli/bead_b.PNG,0,1,left
,,,Anusha,2023-10-10_13h44.55.508,Fish_Game,2023.1.3,MacIntel,60.0024001,,,,,,,,,,,,,1,,,,,,,,,,,,3,1condition/mainTrials8.xlsx,up,0.6999,,0,0.5,322.782,0,0,0,0,1,stimuli/bead_y.PNG,stimuli/blank.jpg,stimuli/blank.jpg,stimuli/blank.jpg,stimuli/blank.jpg,0,1,left
,,,Anusha,2023-10-10_13h44.55.508,Fish_Game,2023.1.3,MacIntel,60.0024001,,,,,,,,,,,,,2,,,,,,,,,,,,,,left,0.5681,,1,1,324.8817,0,1,1,1,1,stimuli/bead_b.PNG,stimuli/bead_y.PNG,stimuli/blank.jpg,stimuli/blank.jpg,stimuli/blank.jpg,0,1,left
,,,Anusha,2023-10-10_13h44.55.508,Fish_Game,2023.1.3,MacIntel,60.0024001,,,,,,,,,,,,,3,,,,,,,,,,,,,,right,0.4996,,0,0.5,326.4137,0,2,2,2,1,stimuli/bead_g.PNG,stimuli/bead_b.PNG,stimuli/bead_y.PNG,stimuli/blank.jpg,stimuli/blank.jpg,0,1,left
,,,Anusha,2023-10-10_13h44.55.508,Fish_Game,2023.1.3,MacIntel,60.0024001,,,,,,,,,,,,,4,,,,,,,,,,,,,,left,0.5676,,1,1,328.5157,0,3,3,3,1,stimuli/bead_b.PNG,stimuli/bead_g.PNG,stimuli/bead_b.PNG,stimuli/bead_y.PNG,stimuli/blank.jpg,0,1,left
,,,Anusha,2023-10-10_13h44.55.508,Fish_Game,2023.1.3,MacIntel,60.0024001,,,,,,,,,,,,,5,,,,,,,,,,,,,,left,0.4682,,1,1,330.5123,0,4,4,4,1,stimuli/bead_b.PNG,stimuli/bead_b.PNG,stimuli/bead_g.PNG,stimuli/bead_b.PNG,stimuli/bead_y.PNG,0,1,left
,,,Anusha,2023-10-10_13h44.55.508,Fish_Game,2023.1.3,MacIntel,60.0024001,,,,,,,,,,,,,6,,,,,,,,,,,,,,left,1.2722,,1,1,333.3138,0,5,5,5,1,stimuli/bead_b.PNG,stimuli/bead_b.PNG,stimuli/bead_b.PNG,stimuli/bead_g.PNG,stimuli/bead_b.PNG,0,1,left
,,,Anusha,2023-10-10_13h44.55.508,Fish_Game,2023.1.3,MacIntel,60.0024001,,,,,,,,,,,,,7,,,,,,,,,,,,,,,,,,1,333.3138,0,6,6,6,1,stimuli/bead_g.PNG,stimuli/bead_b.PNG,stimuli/bead_b.PNG,stimuli/bead_b.PNG,stimuli/bead_g.PNG,0,1,left
,,,Anusha,2023-10-10_13h44.55.508,Fish_Game,2023.1.3,MacIntel,60.0024001,,,,,,,,,,,,,8,,,,,,,,,,,,,,left,0.6386,,1,0.5,340.2145,0,7,7,7,1,stimuli/bead_b.PNG,stimuli/bead_g.PNG,stimuli/bead_b.PNG,stimuli/bead_b.PNG,stimuli/bead_b.PNG,0,1,left
,,,Anusha,2023-10-10_13h44.55.508,Fish_Game,2023.1.3,MacIntel,60.0024001,,,,,,,,,,,,,9,,,,,,,,,,,,,,up,0.7164,,0,1,342.4481,0,8,8,8,1,stimuli/bead_y.PNG,stimuli/bead_b.PNG,stimuli/bead_g.PNG,stimuli/bead_b.PNG,stimuli/bead_b.PNG,0,1,left
,,,Anusha,2023-10-10_13h44.55.508,Fish_Game,2023.1.3,MacIntel,60.0024001,,,,,,,,,,,,,10,,,,,,,,,,,,,,,,,,1.5,342.4481,0,9,9,9,1,stimuli/bead_b.PNG,stimuli/bead_y.PNG,stimuli/bead_b.PNG,stimuli/bead_g.PNG,stimuli/bead_b.PNG,0,1,left
,,,Anusha,2023-10-10_13h44.55.508,Fish_Game,2023.1.3,MacIntel,60.0024001,,,,,,,,,,,,,11,,,,,,,,,,,,,,left,0.5679,,1,1.5,350.2631,0,10,10,10,1,stimuli/bead_b.PNG,stimuli/bead_b.PNG,stimuli/bead_y.PNG,stimuli/bead_b.PNG,stimuli/bead_g.PNG,0,1,left
,,,Anusha,2023-10-10_13h44.55.508,Fish_Game,2023.1.3,MacIntel,60.0024001,,,,,,,,,,,,,12,,,,,,,,,,,,,,up,0.5508,,1,0.5,351.8472,0,11,11,11,1,stimuli/bead_y.PNG,stimuli/bead_b.PNG,stimuli/bead_b.PNG,stimuli/bead_y.PNG,stimuli/bead_b.PNG,1,2,up
,,,Anusha,2023-10-10_13h44.55.508,Fish_Game,2023.1.3,MacIntel,60.0024001,,,,,,,,,,,,,13,,,,,,,,,,,,,,up,0.5214,,1,1.5,354.3799,0,12,12,12,1,stimuli/bead_y.PNG,stimuli/bead_y.PNG,stimuli/bead_b.PNG,stimuli/bead_b.PNG,stimuli/bead_y.PNG,1,2,up
,,,Anusha,2023-10-10_13h44.55.508,Fish_Game,2023.1.3,MacIntel,60.0024001,,,,,,,,,,,,,14,,,,,,,,,,,,,,up,0.5039,,1,0.5,355.9006,0,13,13,13,1,stimuli/bead_y.PNG,stimuli/bead_y.PNG,stimuli/bead_y.PNG,stimuli/bead_b.PNG,stimuli/bead_b.PNG,1,2,up
,,,Anusha,2023-10-10_13h44.55.508,Fish_Game,2023.1.3,MacIntel,60.0024001,,,,,,,,,,,,,15,,,,,,,,,,,,,,right,0.7171,,0,0.5,357.6326,0,14,14,14,1,stimuli/bead_g.PNG,stimuli/bead_y.PNG,stimuli/bead_y.PNG,stimuli/bead_y.PNG,stimuli/bead_b.PNG,1,2,up
,,,Anusha,2023-10-10_13h44.55.508,Fish_Game,2023.1.3,MacIntel,60.0024001,,,,,,,,,,,,,1,,,,,,,,,,,,4,1condition/mainTrials3.xlsx,up,0.7675,,1,1.5,365.4471,0,0,0,0,1,stimuli/bead_y.PNG,stimuli/blank.jpg,stimuli/blank.jpg,stimuli/blank.jpg,stimuli/blank.jpg,1,2,up
,,,Anusha,2023-10-10_13h44.55.508,Fish_Game,2023.1.3,MacIntel,60.0024001,,,,,,,,,,,,,2,,,,,,,,,,,,,,up,0.4199,,1,1.5,367.8834,0,1,1,1,1,stimuli/bead_y.PNG,stimuli/bead_y.PNG,stimuli/blank.jpg,stimuli/blank.jpg,stimuli/blank.jpg,1,2,up
,,,Anusha,2023-10-10_13h44.55.508,Fish_Game,2023.1.3,MacIntel,60.0024001,,,,,,,,,,,,,3,,,,,,,,,,,,,,left,0.5336,,0,1.5,370.4497,0,2,2,2,1,stimuli/bead_b.PNG,stimuli/bead_y.PNG,stimuli/bead_y.PNG,stimuli/blank.jpg,stimuli/blank.jpg,1,2,up
,,,Anusha,2023-10-10_13h44.55.508,Fish_Game,2023.1.3,MacIntel,60.0024001,,,,,,,,,,,,,4,,,,,,,,,,,,,,up,0.4711,,1,1.5,372.9303,0,3,3,3,1,stimuli/bead_y.PNG,stimuli/bead_b.PNG,stimuli/bead_y.PNG,stimuli/bead_y.PNG,stimuli/blank.jpg,1,2,up
,,,Anusha,2023-10-10_13h44.55.508,Fish_Game,2023.1.3,MacIntel,60.0024001,,,,,,,,,,,,,5,,,,,,,,,,,,,,up,0.3844,,1,1.5,375.3328,0,4,4,4,1,stimuli/bead_y.PNG,stimuli/bead_y.PNG,stimuli/bead_b.PNG,stimuli/bead_y.PNG,stimuli/bead_y.PNG,1,2,up
,,,Anusha,2023-10-10_13h44.55.508,Fish_Game,2023.1.3,MacIntel,60.0024001,,,,,,,,,,,,,6,,,,,,,,,,,,,,up,0.3999,,1,1.5,377.7468,0,5,5,5,1,stimuli/bead_y.PNG,stimuli/bead_y.PNG,stimuli/bead_y.PNG,stimuli/bead_b.PNG,stimuli/bead_y.PNG,1,2,up
,,,Anusha,2023-10-10_13h44.55.508,Fish_Game,2023.1.3,MacIntel,60.0024001,,,,,,,,,,,,,7,,,,,,,,,,,,,,left,0.6313,,0,1,379.8989,0,6,6,6,1,stimuli/bead_b.PNG,stimuli/bead_y.PNG,stimuli/bead_y.PNG,stimuli/bead_y.PNG,stimuli/bead_b.PNG,1,2,up
,,,Anusha,2023-10-10_13h44.55.508,Fish_Game,2023.1.3,MacIntel,60.0024001,,,,,,,,,,,,,8,,,,,,,,,,,,,,up,0.4503,,1,1.5,382.3636,0,7,7,7,1,stimuli/bead_y.PNG,stimuli/bead_b.PNG,stimuli/bead_y.PNG,stimuli/bead_y.PNG,stimuli/bead_y.PNG,1,2,up
,,,Anusha,2023-10-10_13h44.55.508,Fish_Game,2023.1.3,MacIntel,60.0024001,,,,,,,,,,,,,9,,,,,,,,,,,,,,up,0.4324,,1,1,384.3149,0,8,8,8,1,stimuli/bead_y.PNG,stimuli/bead_y.PNG,stimuli/bead_b.PNG,stimuli/bead_y.PNG,stimuli/bead_y.PNG,1,2,up
,,,Anusha,2023-10-10_13h44.55.508,Fish_Game,2023.1.3,MacIntel,60.0024001,,,,,,,,,,,,,10,,,,,,,,,,,,,,right,0.801,,0,0.5,386.1341,0,9,9,9,1,stimuli/bead_g.PNG,stimuli/bead_y.PNG,stimuli/bead_y.PNG,stimuli/bead_b.PNG,stimuli/bead_y.PNG,1,2,up
,,,Anusha,2023-10-10_13h44.55.508,Fish_Game,2023.1.3,MacIntel,60.0024001,,,,,,,,,,,,,11,,,,,,,,,,,,,,up,0.6164,,1,0.5,387.782,0,10,10,10,1,stimuli/bead_y.PNG,stimuli/bead_g.PNG,stimuli/bead_y.PNG,stimuli/bead_y.PNG,stimuli/bead_b.PNG,1,2,up
,,,Anusha,2023-10-10_13h44.55.508,Fish_Game,2023.1.3,MacIntel,60.0024001,,,,,,,,,,,,,12,,,,,,,,,,,,,,up,0.4676,,1,1.5,390.2808,0,11,11,11,1,stimuli/bead_g.PNG,stimuli/bead_y.PNG,stimuli/bead_g.PNG,stimuli/bead_y.PNG,stimuli/bead_y.PNG,1,2,up
,,,Anusha,2023-10-10_13h44.55.508,Fish_Game,2023.1.3,MacIntel,60.0024001,,,,,,,,,,,,,13,,,,,,,,,,,,,,up,0.7327,,1,0.5,392.0503,0,12,12,12,1,stimuli/bead_y.PNG,stimuli/bead_g.PNG,stimuli/bead_y.PNG,stimuli/bead_g.PNG,stimuli/bead_y.PNG,1,2,up
,,,Anusha,2023-10-10_13h44.55.508,Fish_Game,2023.1.3,MacIntel,60.0024001,,,,,,,,,,,,,14,,,,,,,,,,,,,,up,0.4704,,1,0.5,393.5474,0,13,13,13,1,stimuli/bead_y.PNG,stimuli/bead_y.PNG,stimuli/bead_g.PNG,stimuli/bead_y.PNG,stimuli/bead_g.PNG,1,2,up
,,,Anusha,2023-10-10_13h44.55.508,Fish_Game,2023.1.3,MacIntel,60.0024001,,,,,,,,,,,,,15,,,,,,,,,,,,,,left,1.7672,,0,1.5,397.3347,0,14,14,14,1,stimuli/bead_y.PNG,stimuli/bead_y.PNG,stimuli/bead_y.PNG,stimuli/bead_g.PNG,stimuli/bead_y.PNG,1,2,up
,,,Anusha,2023-10-10_13h44.55.508,Fish_Game,2023.1.3,MacIntel,60.0024001,,,,,,,,,,,,,1,,,,,,,,,,,,5,1condition/mainTrials1.xlsx,left,0.4722,,0,0.5,403.8501,0,0,0,0,1,stimuli/bead_g.PNG,stimuli/blank.jpg,stimuli/blank.jpg,stimuli/blank.jpg,stimuli/blank.jpg,2,3,right
,,,Anusha,2023-10-10_13h44.55.508,Fish_Game,2023.1.3,MacIntel,60.0024001,,,,,,,,,,,,,2,,,,,,,,,,,,,,left,0.1516,,0,1,405.5341,0,1,1,1,1,stimuli/bead_y.PNG,stimuli/bead_g.PNG,stimuli/blank.jpg,stimuli/blank.jpg,stimuli/blank.jpg,2,3,right
,,,Anusha,2023-10-10_13h44.55.508,Fish_Game,2023.1.3,MacIntel,60.0024001,,,,,,,,,,,,,3,,,,,,,,,,,,,,left,0.4343,,0,1,407.4846,0,2,2,2,1,stimuli/bead_g.PNG,stimuli/bead_y.PNG,stimuli/bead_g.PNG,stimuli/blank.jpg,stimuli/blank.jpg,2,3,right
,,,Anusha,2023-10-10_13h44.55.508,Fish_Game,2023.1.3,MacIntel,60.0024001,,,,,,,,,,,,,4,,,,,,,,,,,,,,left,0.4509,,0,0.5,408.9487,0,3,3,3,1,stimuli/bead_b.PNG,stimuli/bead_g.PNG,stimuli/bead_y.PNG,stimuli/bead_g.PNG,stimuli/blank.jpg,2,3,right
,,,Anusha,2023-10-10_13h44.55.508,Fish_Game,2023.1.3,MacIntel,60.0024001,,,,,,,,,,,,,5,,,,,,,,,,,,,,left,0.4202,,0,1.5,411.3816,0,4,4,4,1,stimuli/bead_g.PNG,stimuli/bead_b.PNG,stimuli/bead_g.PNG,stimuli/bead_y.PNG,stimuli/bead_g.PNG,2,3,right
,,,Anusha,2023-10-10_13h44.55.508,Fish_Game,2023.1.3,MacIntel,60.0024001,,,,,,,,,,,,,6,,,,,,,,,,,,,,left,0.6861,,0,0.5,413.098,0,5,5,5,1,stimuli/bead_g.PNG,stimuli/bead_g.PNG,stimuli/bead_b.PNG,stimuli/bead_g.PNG,stimuli/bead_y.PNG,2,3,right
,,,Anusha,2023-10-10_13h44.55.508,Fish_Game,2023.1.3,MacIntel,60.0024001,,,,,,,,,,,,,7,,,,,,,,,,,,,,left,2.5354,,0,1.5,417.6685,0,6,6,6,1,stimuli/bead_g.PNG,stimuli/bead_g.PNG,stimuli/bead_g.PNG,stimuli/bead_b.PNG,stimuli/bead_g.PNG,2,3,right
,,,Anusha,2023-10-10_13h44.55.508,Fish_Game,2023.1.3,MacIntel,60.0024001,,,,,,,,,,,,,8,,,,,,,,,,,,,,left,0.0845,,0,1.5,419.7814,0,7,7,7,1,stimuli/bead_g.PNG,stimuli/bead_g.PNG,stimuli/bead_g.PNG,stimuli/bead_g.PNG,stimuli/bead_b.PNG,2,3,right
,,,Anusha,2023-10-10_13h44.55.508,Fish_Game,2023.1.3,MacIntel,60.0024001,,,,,,,,,,,,,9,,,,,,,,,,,,,,up,0.3522,,0,1.5,422.1677,0,8,8,8,1,stimuli/bead_b.PNG,stimuli/bead_g.PNG,stimuli/bead_g.PNG,stimuli/bead_g.PNG,stimuli/bead_g.PNG,2,3,right
,,,Anusha,2023-10-10_13h44.55.508,Fish_Game,2023.1.3,MacIntel,60.0024001,,,,,,,,,,,,,10,,,,,,,,,,,,,,right,0.6846,,1,1.5,424.8816,0,9,9,9,1,stimuli/bead_g.PNG,stimuli/bead_b.PNG,stimuli/bead_g.PNG,stimuli/bead_g.PNG,stimuli/bead_g.PNG,2,3,right
,,,Anusha,2023-10-10_13h44.55.508,Fish_Game,2023.1.3,MacIntel,60.0024001,,,,,,,,,,,,,11,,,,,,,,,,,,,,right,0.6655,,1,1,427.0663,0,10,10,10,1,stimuli/bead_g.PNG,stimuli/bead_g.PNG,stimuli/bead_b.PNG,stimuli/bead_g.PNG,stimuli/bead_g.PNG,2,3,right
,,,Anusha,2023-10-10_13h44.55.508,Fish_Game,2023.1.3,MacIntel,60.0024001,,,,,,,,,,,,,12,,,,,,,,,,,,,,right,0.4501,,1,1,429.0326,0,11,11,11,1,stimuli/bead_g.PNG,stimuli/bead_g.PNG,stimuli/bead_g.PNG,stimuli/bead_b.PNG,stimuli/bead_g.PNG,2,3,right
,,,Anusha,2023-10-10_13h44.55.508,Fish_Game,2023.1.3,MacIntel,60.0024001,,,,,,,,,,,,,13,,,,,,,,,,,,,,left,0.6659,,1,1.5,431.7343,0,12,12,12,1,stimuli/bead_b.PNG,stimuli/bead_g.PNG,stimuli/bead_g.PNG,stimuli/bead_g.PNG,stimuli/bead_b.PNG,0,1,left
,,,Anusha,2023-10-10_13h44.55.508,Fish_Game,2023.1.3,MacIntel,60.0024001,,,,,,,,,,,,,14,,,,,,,,,,,,,,left,0.6497,,1,0.5,433.4181,0,13,13,13,1,stimuli/bead_b.PNG,stimuli/bead_b.PNG,stimuli/bead_g.PNG,stimuli/bead_g.PNG,stimuli/bead_g.PNG,0,1,left
,,,Anusha,2023-10-10_13h44.55.508,Fish_Game,2023.1.3,MacIntel,60.0024001,,,,,,,,,,,,,15,,,,,,,,,,,,,,left,0.4501,,1,1.5,435.8833,0,14,14,14,1,stimuli/bead_b.PNG,stimuli/bead_b.PNG,stimuli/bead_b.PNG,stimuli/bead_g.PNG,stimuli/bead_g.PNG,0,1,left
,,,Anusha,2023-10-10_13h44.55.508,Fish_Game,2023.1.3,MacIntel,60.0024001,,,,,,,,,,,,,1,,,,,,,,,,,,6,1condition/mainTrials4.xlsx,right,0.8322,,1,1,443.2667,0,0,0,0,1,stimuli/bead_g.PNG,stimuli/blank.jpg,stimuli/blank.jpg,stimuli/blank.jpg,stimuli/blank.jpg,2,3,right
,,,Anusha,2023-10-10_13h44.55.508,Fish_Game,2023.1.3,MacIntel,60.0024001,,,,,,,,,,,,,2,,,,,,,,,,,,,,right,0.4172,,1,1,445.2169,0,1,1,1,1,stimuli/bead_g.PNG,stimuli/bead_g.PNG,stimuli/blank.jpg,stimuli/blank.jpg,stimuli/blank.jpg,2,3,right
,,,Anusha,2023-10-10_13h44.55.508,Fish_Game,2023.1.3,MacIntel,60.0024001,,,,,,,,,,,,,3,,,,,,,,,,,,,,left,0.9073,,0,0.5,447.1521,0,2,2,2,1,stimuli/bead_b.PNG,stimuli/bead_g.PNG,stimuli/bead_g.PNG,stimuli/blank.jpg,stimuli/blank.jpg,2,3,right
,,,Anusha,2023-10-10_13h44.55.508,Fish_Game,2023.1.3,MacIntel,60.0024001,,,,,,,,,,,,,4,,,,,,,,,,,,,,right,0.7333,,1,0.5,448.9156,0,3,3,3,1,stimuli/bead_g.PNG,stimuli/bead_b.PNG,stimuli/bead_g.PNG,stimuli/bead_g.PNG,stimuli/blank.jpg,2,3,right
,,,Anusha,2023-10-10_13h44.55.508,Fish_Game,2023.1.3,MacIntel,60.0024001,,,,,,,,,,,,,5,,,,,,,,,,,,,,right,0.6009,,1,1,451.0335,0,4,4,4,1,stimuli/bead_g.PNG,stimuli/bead_g.PNG,stimuli/bead_b.PNG,stimuli/bead_g.PNG,stimuli/bead_g.PNG,2,3,right
,,,Anusha,2023-10-10_13h44.55.508,Fish_Game,2023.1.3,MacIntel,60.0024001,,,,,,,,,,,,,6,,,,,,,,,,,,,,up,0.6849,,0,0.5,452.7512,0,5,5,5,1,stimuli/bead_y.PNG,stimuli/bead_g.PNG,stimuli/bead_g.PNG,stimuli/bead_b.PNG,stimuli/bead_g.PNG,2,3,right
,,,Anusha,2023-10-10_13h44.55.508,Fish_Game,2023.1.3,MacIntel,60.0024001,,,,,,,,,,,,,7,,,,,,,,,,,,,,right,0.7347,,1,1,455.0157,0,6,6,6,1,stimuli/bead_g.PNG,stimuli/bead_y.PNG,stimuli/bead_g.PNG,stimuli/bead_g.PNG,stimuli/bead_b.PNG,2,3,right
,,,Anusha,2023-10-10_13h44.55.508,Fish_Game,2023.1.3,MacIntel,60.0024001,,,,,,,,,,,,,8,,,,,,,,,,,,,,up,0.6179,,1,0.5,456.6502,0,7,7,7,1,stimuli/bead_y.PNG,stimuli/bead_g.PNG,stimuli/bead_y.PNG,stimuli/bead_g.PNG,stimuli/bead_g.PNG,1,2,up
,,,Anusha,2023-10-10_13h44.55.508,Fish_Game,2023.1.3,MacIntel,60.0024001,,,,,,,,,,,,,9,,,,,,,,,,,,,,up,1.2023,,1,0.5,458.8826,0,8,8,8,1,stimuli/bead_y.PNG,stimuli/bead_y.PNG,stimuli/bead_g.PNG,stimuli/bead_y.PNG,stimuli/bead_g.PNG,1,2,up
,,,Anusha,2023-10-10_13h44.55.508,Fish_Game,2023.1.3,MacIntel,60.0024001,,,,,,,,,,,,,10,,,,,,,,,,,,,,right,0.6509,,0,1.5,461.5496,0,9,9,9,1,stimuli/bead_g.PNG,stimuli/bead_y.PNG,stimuli/bead_y.PNG,stimuli/bead_g.PNG,stimuli/bead_y.PNG,1,2,up
,,,Anusha,2023-10-10_13h44.55.508,Fish_Game,2023.1.3,MacIntel,60.0024001,,,,,,,,,,,,,11,,,,,,,,,,,,,,up,0.5824,,1,1.5,464.166,0,10,10,10,1,stimuli/bead_y.PNG,stimuli/bead_g.PNG,stimuli/bead_y.PNG,stimuli/bead_y.PNG,stimuli/bead_g.PNG,1,2,up
,,,Anusha,2023-10-10_13h44.55.508,Fish_Game,2023.1.3,MacIntel,60.0024001,,,,,,,,,,,,,12,,,,,,,,,,,,,,up,0.6829,,1,0.5,465.8864,0,11,11,11,1,stimuli/bead_y.PNG,stimuli/bead_y.PNG,stimuli/bead_g.PNG,stimuli/bead_y.PNG,stimuli/bead_y.PNG,1,2,up
,,,Anusha,2023-10-10_13h44.55.508,Fish_Game,2023.1.3,MacIntel,60.0024001,,,,,,,,,,,,,13,,,,,,,,,,,,,,left,0.5054,,0,1.5,468.4187,0,12,12,12,1,stimuli/bead_b.PNG,stimuli/bead_y.PNG,stimuli/bead_y.PNG,stimuli/bead_g.PNG,stimuli/bead_y.PNG,1,2,up
,,,Anusha,2023-10-10_13h44.55.508,Fish_Game,2023.1.3,MacIntel,60.0024001,,,,,,,,,,,,,14,,,,,,,,,,,,,,up,0.6994,,1,0.5,470.1325,0,13,13,13,1,stimuli/bead_y.PNG,stimuli/bead_b.PNG,stimuli/bead_y.PNG,stimuli/bead_y.PNG,stimuli/bead_g.PNG,1,2,up
,,,Anusha,2023-10-10_13h44.55.508,Fish_Game,2023.1.3,MacIntel,60.0024001,,,,,,,,,,,,,15,,,,,,,,,,,,,,up,0.5679,,1,1.5,472.7334,0,14,14,14,1,stimuli/bead_y.PNG,stimuli/bead_y.PNG,stimuli/bead_b.PNG,stimuli/bead_y.PNG,stimuli/bead_y.PNG,1,2,up
,,,Anusha,2023-10-10_13h44.55.508,Fish_Game,2023.1.3,MacIntel,60.0024001,,,,,,,,,,,,,1,,,,,,,,,,,,7,1condition/mainTrials5.xlsx,left,0.716,,1,1.5,480.4858,0,0,0,0,1,stimuli/bead_b.PNG,stimuli/blank.jpg,stimuli/blank.jpg,stimuli/blank.jpg,stimuli/blank.jpg,0,1,left
,,,Anusha,2023-10-10_13h44.55.508,Fish_Game,2023.1.3,MacIntel,60.0024001,,,,,,,,,,,,,2,,,,,,,,,,,,,,left,0.4862,,1,1,482.5009,0,1,1,1,1,stimuli/bead_b.PNG,stimuli/bead_b.PNG,stimuli/blank.jpg,stimuli/blank.jpg,stimuli/blank.jpg,0,1,left
,,,Anusha,2023-10-10_13h44.55.508,Fish_Game,2023.1.3,MacIntel,60.0024001,,,,,,,,,,,,,3,,,,,,,,,,,,,,up,0.4696,,0,1.5,485.0018,0,2,2,2,1,stimuli/bead_y.PNG,stimuli/bead_b.PNG,stimuli/bead_b.PNG,stimuli/blank.jpg,stimuli/blank.jpg,0,1,left
,,,Anusha,2023-10-10_13h44.55.508,Fish_Game,2023.1.3,MacIntel,60.0024001,,,,,,,,,,,,,4,,,,,,,,,,,,,,left,0.6997,,1,1,487.2195,0,3,3,3,1,stimuli/bead_b.PNG,stimuli/bead_y.PNG,stimuli/bead_b.PNG,stimuli/bead_b.PNG,stimuli/blank.jpg,0,1,left
,,,Anusha,2023-10-10_13h44.55.508,Fish_Game,2023.1.3,MacIntel,60.0024001,,,,,,,,,,,,,5,,,,,,,,,,,,,,left,0.5385,,1,1.5,489.7855,0,4,4,4,1,stimuli/bead_b.PNG,stimuli/bead_b.PNG,stimuli/bead_y.PNG,stimuli/bead_b.PNG,stimuli/bead_b.PNG,0,1,left
,,,Anusha,2023-10-10_13h44.55.508,Fish_Game,2023.1.3,MacIntel,60.0024001,,,,,,,,,,,,,6,,,,,,,,,,,,,,right,0.7163,,1,1.5,492.5177,0,5,5,5,1,stimuli/bead_g.PNG,stimuli/bead_b.PNG,stimuli/bead_b.PNG,stimuli/bead_y.PNG,stimuli/bead_b.PNG,2,3,right
,,,Anusha,2023-10-10_13h44.55.508,Fish_Game,2023.1.3,MacIntel,60.0024001,,,,,,,,,,,,,7,,,,,,,,,,,,,,right,0.7566,,1,1,494.8016,0,6,6,6,1,stimuli/bead_g.PNG,stimuli/bead_g.PNG,stimuli/bead_b.PNG,stimuli/bead_b.PNG,stimuli/bead_y.PNG,2,2,right
,,,Anusha,2023-10-10_13h44.55.508,Fish_Game,2023.1.3,MacIntel,60.0024001,,,,,,,,,,,,,8,,,,,,,,,,,,,,left,0.7531,,0,1,497.0671,0,7,7,7,1,stimuli/bead_b.PNG,stimuli/bead_g.PNG,stimuli/bead_g.PNG,stimuli/bead_b.PNG,stimuli/bead_b.PNG,2,2,right
,,,Anusha,2023-10-10_13h44.55.508,Fish_Game,2023.1.3,MacIntel,60.0024001,,,,,,,,,,,,,9,,,,,,,,,,,,,,right,0.8008,,1,1,499.384,0,8,8,8,1,stimuli/bead_g.PNG,stimuli/bead_b.PNG,stimuli/bead_g.PNG,stimuli/bead_g.PNG,stimuli/bead_b.PNG,2,2,right
,,,Anusha,2023-10-10_13h44.55.508,Fish_Game,2023.1.3,MacIntel,60.0024001,,,,,,,,,,,,,10,,,,,,,,,,,,,,left,0.4319,,0,1.5,501.8337,0,9,9,9,1,stimuli/bead_b.PNG,stimuli/bead_g.PNG,stimuli/bead_b.PNG,stimuli/bead_g.PNG,stimuli/bead_g.PNG,2,2,right
,,,Anusha,2023-10-10_13h44.55.508,Fish_Game,2023.1.3,MacIntel,60.0024001,,,,,,,,,,,,,11,,,,,,,,,,,,,,right,0.8906,,1,0.5,503.7368,0,10,10,10,1,stimuli/bead_g.PNG,stimuli/bead_b.PNG,stimuli/bead_g.PNG,stimuli/bead_b.PNG,stimuli/bead_g.PNG,2,2,right
,,,Anusha,2023-10-10_13h44.55.508,Fish_Game,2023.1.3,MacIntel,60.0024001,,,,,,,,,,,,,12,,,,,,,,,,,,,,right,0.5161,,1,1,505.7869,0,11,11,11,1,stimuli/bead_g.PNG,stimuli/bead_g.PNG,stimuli/bead_b.PNG,stimuli/bead_g.PNG,stimuli/bead_b.PNG,2,2,right
,,,Anusha,2023-10-10_13h44.55.508,Fish_Game,2023.1.3,MacIntel,60.0024001,,,,,,,,,,,,,13,,,,,,,,,,,,,,right,0.5988,,1,0.5,507.4186,0,12,12,12,1,stimuli/bead_g.PNG,stimuli/bead_g.PNG,stimuli/bead_g.PNG,stimuli/bead_b.PNG,stimuli/bead_g.PNG,2,3,right
,,,Anusha,2023-10-10_13h44.55.508,Fish_Game,2023.1.3,MacIntel,60.0024001,,,,,,,,,,,,,14,,,,,,,,,,,,,,up,0.6514,,0,1,509.6041,0,13,13,13,1,stimuli/bead_y.PNG,stimuli/bead_g.PNG,stimuli/bead_g.PNG,stimuli/bead_g.PNG,stimuli/bead_b.PNG,2,3,right
,,,Anusha,2023-10-10_13h44.55.508,Fish_Game,2023.1.3,MacIntel,60.0024001,,,,,,,,,,,,,15,,,,,,,,,,,,,,right,0.7656,,1,1,511.8836,0,14,14,14,1,stimuli/bead_g.PNG,stimuli/bead_y.PNG,stimuli/bead_g.PNG,stimuli/bead_g.PNG,stimuli/bead_g.PNG,2,3,right
,,,Anusha,2023-10-10_13h44.55.508,Fish_Game,2023.1.3,MacIntel,60.0024001,,,,,,,,,,,,,1,,,,,,,,,,,,8,1condition/mainTrials7.xlsx,up,0.6163,,1,0.5,518.5508,0,0,0,0,1,stimuli/bead_y.PNG,stimuli/blank.jpg,stimuli/blank.jpg,stimuli/blank.jpg,stimuli/blank.jpg,1,2,up
,,,Anusha,2023-10-10_13h44.55.508,Fish_Game,2023.1.3,MacIntel,60.0024001,,,,,,,,,,,,,2,,,,,,,,,,,,,,up,0.468,,1,0.5,520.0509,0,1,1,1,1,stimuli/bead_y.PNG,stimuli/bead_y.PNG,stimuli/blank.jpg,stimuli/blank.jpg,stimuli/blank.jpg,1,2,up
,,,Anusha,2023-10-10_13h44.55.508,Fish_Game,2023.1.3,MacIntel,60.0024001,,,,,,,,,,,,,3,,,,,,,,,,,,,,right,0.5332,,0,1,522.101,0,2,2,2,1,stimuli/bead_g.PNG,stimuli/bead_y.PNG,stimuli/bead_y.PNG,stimuli/blank.jpg,stimuli/blank.jpg,1,2,up
,,,Anusha,2023-10-10_13h44.55.508,Fish_Game,2023.1.3,MacIntel,60.0024001,,,,,,,,,,,,,4,,,,,,,,,,,,,,up,0.5356,,1,1,524.1672,0,3,3,3,1,stimuli/bead_y.PNG,stimuli/bead_g.PNG,stimuli/bead_y.PNG,stimuli/bead_y.PNG,stimuli/blank.jpg,1,2,up
,,,Anusha,2023-10-10_13h44.55.508,Fish_Game,2023.1.3,MacIntel,60.0024001,,,,,,,,,,,,,5,,,,,,,,,,,,,,up,0.5811,,1,0.5,525.7691,0,4,4,4,1,stimuli/bead_y.PNG,stimuli/bead_y.PNG,stimuli/bead_g.PNG,stimuli/bead_y.PNG,stimuli/bead_y.PNG,1,2,up
,,,Anusha,2023-10-10_13h44.55.508,Fish_Game,2023.1.3,MacIntel,60.0024001,,,,,,,,,,,,,6,,,,,,,,,,,,,,up,0.4979,,1,1.5,528.303,0,5,5,5,1,stimuli/bead_y.PNG,stimuli/bead_y.PNG,stimuli/bead_y.PNG,stimuli/bead_g.PNG,stimuli/bead_y.PNG,1,2,up
,,,Anusha,2023-10-10_13h44.55.508,Fish_Game,2023.1.3,MacIntel,60.0024001,,,,,,,,,,,,,7,,,,,,,,,,,,,,left,0.8548,,0,1.5,531.185,0,6,6,6,1,stimuli/bead_b.PNG,stimuli/bead_y.PNG,stimuli/bead_y.PNG,stimuli/bead_y.PNG,stimuli/bead_g.PNG,1,2,up
,,,Anusha,2023-10-10_13h44.55.508,Fish_Game,2023.1.3,MacIntel,60.0024001,,,,,,,,,,,,,8,,,,,,,,,,,,,,up,0.733,,1,1,533.436,0,7,7,7,1,stimuli/bead_y.PNG,stimuli/bead_b.PNG,stimuli/bead_y.PNG,stimuli/bead_y.PNG,stimuli/bead_y.PNG,1,2,up
,,,Anusha,2023-10-10_13h44.55.508,Fish_Game,2023.1.3,MacIntel,60.0024001,,,,,,,,,,,,,9,,,,,,,,,,,,,,up,0.4832,,0,1.5,535.9374,0,8,8,8,1,stimuli/bead_y.PNG,stimuli/bead_y.PNG,stimuli/bead_b.PNG,stimuli/bead_y.PNG,stimuli/bead_y.PNG,1,2,right
,,,Anusha,2023-10-10_13h44.55.508,Fish_Game,2023.1.3,MacIntel,60.0024001,,,,,,,,,,,,,10,,,,,,,,,,,,,,right,0.7501,,1,1,538.2185,0,9,9,9,1,stimuli/bead_g.PNG,stimuli/bead_y.PNG,stimuli/bead_y.PNG,stimuli/bead_b.PNG,stimuli/bead_y.PNG,2,3,right
,,,Anusha,2023-10-10_13h44.55.508,Fish_Game,2023.1.3,MacIntel,60.0024001,,,,,,,,,,,,,11,,,,,,,,,,,,,,right,0.6972,,1,0.5,539.9348,0,10,10,10,1,stimuli/bead_g.PNG,stimuli/bead_g.PNG,stimuli/bead_y.PNG,stimuli/bead_y.PNG,stimuli/bead_b.PNG,2,3,right
,,,Anusha,2023-10-10_13h44.55.508,Fish_Game,2023.1.3,MacIntel,60.0024001,,,,,,,,,,,,,12,,,,,,,,,,,,,,up,0.6229,,0,1.5,542.5873,0,11,11,11,1,stimuli/bead_y.PNG,stimuli/bead_g.PNG,stimuli/bead_g.PNG,stimuli/bead_y.PNG,stimuli/bead_y.PNG,2,3,right
,,,Anusha,2023-10-10_13h44.55.508,Fish_Game,2023.1.3,MacIntel,60.0024001,,,,,,,,,,,,,13,,,,,,,,,,,,,,right,0.4973,,1,1.5,545.1192,0,12,12,12,1,stimuli/bead_g.PNG,stimuli/bead_y.PNG,stimuli/bead_g.PNG,stimuli/bead_g.PNG,stimuli/bead_y.PNG,2,3,right
,,,Anusha,2023-10-10_13h44.55.508,Fish_Game,2023.1.3,MacIntel,60.0024001,,,,,,,,,,,,,14,,,,,,,,,,,,,,right,0.5342,,1,1.5,547.6862,0,13,13,13,1,stimuli/bead_g.PNG,stimuli/bead_g.PNG,stimuli/bead_y.PNG,stimuli/bead_g.PNG,stimuli/bead_g.PNG,2,3,right
,,,Anusha,2023-10-10_13h44.55.508,Fish_Game,2023.1.3,MacIntel,60.0024001,,,,,,,,,,,,,15,,,,,,,,,,,,,,right,0.5499,,1,1,549.7692,0,14,14,14,1,stimuli/bead_g.PNG,stimuli/bead_g.PNG,stimuli/bead_g.PNG,stimuli/bead_y.PNG,stimuli/bead_g.PNG,2,3,right
,,,Anusha,2023-10-10_13h44.55.508,Fish_Game,2023.1.3,MacIntel,60.0024001,,,,,,,,,,,,,1,,,,,,,,,,,,9,1condition/mainTrials9.xlsx,right,0.6491,,1,0.5,556.4716,0,0,0,0,1,stimuli/bead_g.PNG,stimuli/blank.jpg,stimuli/blank.jpg,stimuli/blank.jpg,stimuli/blank.jpg,2,3,right
,,,Anusha,2023-10-10_13h44.55.508,Fish_Game,2023.1.3,MacIntel,60.0024001,,,,,,,,,,,,,2,,,,,,,,,,,,,,right,0.3731,,1,0.5,557.8705,0,1,1,1,1,stimuli/bead_g.PNG,stimuli/bead_g.PNG,stimuli/blank.jpg,stimuli/blank.jpg,stimuli/blank.jpg,2,3,right
,,,Anusha,2023-10-10_13h44.55.508,Fish_Game,2023.1.3,MacIntel,60.0024001,,,,,,,,,,,,,3,,,,,,,,,,,,,,left,0.5985,,0,1,560.0036,0,2,2,2,1,stimuli/bead_b.PNG,stimuli/bead_g.PNG,stimuli/bead_g.PNG,stimuli/blank.jpg,stimuli/blank.jpg,2,3,right
,,,Anusha,2023-10-10_13h44.55.508,Fish_Game,2023.1.3,MacIntel,60.0024001,,,,,,,,,,,,,4,,,,,,,,,,,,,,right,0.7341,,1,0.5,561.7688,0,3,3,3,1,stimuli/bead_g.PNG,stimuli/bead_b.PNG,stimuli/bead_g.PNG,stimuli/bead_g.PNG,stimuli/blank.jpg,2,3,right
,,,Anusha,2023-10-10_13h44.55.508,Fish_Game,2023.1.3,MacIntel,60.0024001,,,,,,,,,,,,,5,,,,,,,,,,,,,,right,0.6504,,1,0.5,563.4548,0,4,4,4,1,stimuli/bead_g.PNG,stimuli/bead_g.PNG,stimuli/bead_b.PNG,stimuli/bead_g.PNG,stimuli/bead_g.PNG,2,3,right
,,,Anusha,2023-10-10_13h44.55.508,Fish_Game,2023.1.3,MacIntel,60.0024001,,,,,,,,,,,,,6,,,,,,,,,,,,,,left,0.6058,,0,1,565.5891,0,5,5,5,1,stimuli/bead_b.PNG,stimuli/bead_g.PNG,stimuli/bead_g.PNG,stimuli/bead_b.PNG,stimuli/bead_g.PNG,2,3,right
,,,Anusha,2023-10-10_13h44.55.508,Fish_Game,2023.1.3,MacIntel,60.0024001,,,,,,,,,,,,,7,,,,,,,,,,,,,,right,0.6335,,1,1,567.7521,0,6,6,6,1,stimuli/bead_g.PNG,stimuli/bead_b.PNG,stimuli/bead_g.PNG,stimuli/bead_g.PNG,stimuli/bead_b.PNG,2,3,right
,,,Anusha,2023-10-10_13h44.55.508,Fish_Game,2023.1.3,MacIntel,60.0024001,,,,,,,,,,,,,8,,,,,,,,,,,,,,right,0.4515,,1,1.5,570.2359,0,7,7,7,1,stimuli/bead_g.PNG,stimuli/bead_g.PNG,stimuli/bead_b.PNG,stimuli/bead_g.PNG,stimuli/bead_g.PNG,2,3,right
,,,Anusha,2023-10-10_13h44.55.508,Fish_Game,2023.1.3,MacIntel,60.0024001,,,,,,,,,,,,,9,,,,,,,,,,,,,,left,1.0656,,1,0.5,572.3371,0,8,8,8,1,stimuli/bead_b.PNG,stimuli/bead_g.PNG,stimuli/bead_g.PNG,stimuli/bead_b.PNG,stimuli/bead_g.PNG,0,1,left
,,,Anusha,2023-10-10_13h44.55.508,Fish_Game,2023.1.3,MacIntel,60.0024001,,,,,,,,,,,,,10,,,,,,,,,,,,,,up,0.5028,,0,1.5,574.8714,0,9,9,9,1,stimuli/bead_y.PNG,stimuli/bead_b.PNG,stimuli/bead_g.PNG,stimuli/bead_g.PNG,stimuli/bead_b.PNG,0,1,left
,,,Anusha,2023-10-10_13h44.55.508,Fish_Game,2023.1.3,MacIntel,60.0024001,,,,,,,,,,,,,11,,,,,,,,,,,,,,left,0.7002,,1,1.5,577.604,0,10,10,10,1,stimuli/bead_b.PNG,stimuli/bead_y.PNG,stimuli/bead_b.PNG,stimuli/bead_g.PNG,stimuli/bead_g.PNG,0,1,left
,,,Anusha,2023-10-10_13h44.55.508,Fish_Game,2023.1.3,MacIntel,60.0024001,,,,,,,,,,,,,12,,,,,,,,,,,,,,left,0.5656,,1,1.5,580.2031,0,11,11,11,1,stimuli/bead_b.PNG,stimuli/bead_b.PNG,stimuli/bead_y.PNG,stimuli/bead_b.PNG,stimuli/bead_g.PNG,0,1,left
,,,Anusha,2023-10-10_13h44.55.508,Fish_Game,2023.1.3,MacIntel,60.0024001,,,,,,,,,,,,,13,,,,,,,,,,,,,,left,0.5819,,1,0.5,581.8209,0,12,12,12,1,stimuli/bead_b.PNG,stimuli/bead_b.PNG,stimuli/bead_b.PNG,stimuli/bead_y.PNG,stimuli/bead_b.PNG,0,1,left
,,,Anusha,2023-10-10_13h44.55.508,Fish_Game,2023.1.3,MacIntel,60.0024001,,,,,,,,,,,,,14,,,,,,,,,,,,,,right,0.6184,,0,1.5,584.4708,0,13,13,13,1,stimuli/bead_g.PNG,stimuli/bead_b.PNG,stimuli/bead_b.PNG,stimuli/bead_b.PNG,stimuli/bead_y.PNG,0,1,left
,,,Anusha,2023-10-10_13h44.55.508,Fish_Game,2023.1.3,MacIntel,60.0024001,,,,,,,,,,,,,15,,,,,,,,,,,,,,left,0.6837,,1,1.5,587.1868,0,14,14,14,1,stimuli/bead_b.PNG,stimuli/bead_g.PNG,stimuli/bead_b.PNG,stimuli/bead_b.PNG,stimuli/bead_b.PNG,0,1,left
,,,Anusha,2023-10-10_13h44.55.508,Fish_Game,2023.1.3,MacIntel,60.0024001,,,,,,,,,,,,,1,,,,,,,,,,,,10,1condition/mainTrials6.xlsx,left,0.6356,,0,1,594.3707,0,0,0,0,1,stimuli/bead_b.PNG,stimuli/blank.jpg,stimuli/blank.jpg,stimuli/blank.jpg,stimuli/blank.jpg,1,2,up
,,,Anusha,2023-10-10_13h44.55.508,Fish_Game,2023.1.3,MacIntel,60.0024001,,,,,,,,,,,,,2,,,,,,,,,,,,,,left,0.0325,,0,0.5,595.4365,0,1,1,1,1,stimuli/bead_y.PNG,stimuli/bead_b.PNG,stimuli/blank.jpg,stimuli/blank.jpg,stimuli/blank.jpg,1,2,up
,,,Anusha,2023-10-10_13h44.55.508,Fish_Game,2023.1.3,MacIntel,60.0024001,,,,,,,,,,,,,3,,,,,,,,,,,,,,up,0.238,,1,1,597.2057,0,2,2,2,1,stimuli/bead_y.PNG,stimuli/bead_y.PNG,stimuli/bead_b.PNG,stimuli/blank.jpg,stimuli/blank.jpg,1,2,up
,,,Anusha,2023-10-10_13h44.55.508,Fish_Game,2023.1.3,MacIntel,60.0024001,,,,,,,,,,,,,4,,,,,,,,,,,,,,up,0.2698,,1,1.5,599.5047,0,3,3,3,1,stimuli/bead_y.PNG,stimuli/bead_y.PNG,stimuli/bead_y.PNG,stimuli/bead_b.PNG,stimuli/blank.jpg,1,2,up
,,,Anusha,2023-10-10_13h44.55.508,Fish_Game,2023.1.3,MacIntel,60.0024001,,,,,,,,,,,,,5,,,,,,,,,,,,,,up,0.171,,0,0.5,600.6872,0,4,4,4,1,stimuli/bead_g.PNG,stimuli/bead_y.PNG,stimuli/bead_y.PNG,stimuli/bead_y.PNG,stimuli/bead_b.PNG,2,3,right
,,,Anusha,2023-10-10_13h44.55.508,Fish_Game,2023.1.3,MacIntel,60.0024001,,,,,,,,,,,,,6,,,,,,,,,,,,,,right,0.0005,,1,1,602.2224,0,5,5,5,1,stimuli/bead_g.PNG,stimuli/bead_g.PNG,stimuli/bead_y.PNG,stimuli/bead_y.PNG,stimuli/bead_y.PNG,2,3,right
,,,Anusha,2023-10-10_13h44.55.508,Fish_Game,2023.1.3,MacIntel,60.0024001,,,,,,,,,,,,,7,,,,,,,,,,,,,,right,0.1174,,1,1,603.8725,0,6,6,6,1,stimuli/bead_y.PNG,stimuli/bead_g.PNG,stimuli/bead_g.PNG,stimuli/bead_y.PNG,stimuli/bead_y.PNG,2,3,right
,,,Anusha,2023-10-10_13h44.55.508,Fish_Game,2023.1.3,MacIntel,60.0024001,,,,,,,,,,,,,8,,,,,,,,,,,,,,right,0.6173,,1,1,606.0225,0,7,7,7,1,stimuli/bead_g.PNG,stimuli/bead_y.PNG,stimuli/bead_g.PNG,stimuli/bead_g.PNG,stimuli/bead_y.PNG,2,3,right
,,,Anusha,2023-10-10_13h44.55.508,Fish_Game,2023.1.3,MacIntel,60.0024001,,,,,,,,,,,,,9,,,,,,,,,,,,,,right,1.1685,,1,1.5,609.2223,0,8,8,8,1,stimuli/bead_g.PNG,stimuli/bead_g.PNG,stimuli/bead_y.PNG,stimuli/bead_g.PNG,stimuli/bead_g.PNG,2,3,right
,,,Anusha,2023-10-10_13h44.55.508,Fish_Game,2023.1.3,MacIntel,60.0024001,,,,,,,,,,,,,10,,,,,,,,,,,,,,right,0.8664,,1,0.5,611.1053,0,9,9,9,1,stimuli/bead_g.PNG,stimuli/bead_g.PNG,stimuli/bead_g.PNG,stimuli/bead_y.PNG,stimuli/bead_g.PNG,2,3,right
,,,Anusha,2023-10-10_13h44.55.508,Fish_Game,2023.1.3,MacIntel,60.0024001,,,,,,,,,,,,,11,,,,,,,,,,,,,,up,0.8328,,1,0.5,612.9711,0,10,10,10,1,stimuli/bead_y.PNG,stimuli/bead_g.PNG,stimuli/bead_g.PNG,stimuli/bead_g.PNG,stimuli/bead_y.PNG,1,2,up
,,,Anusha,2023-10-10_13h44.55.508,Fish_Game,2023.1.3,MacIntel,60.0024001,,,,,,,,,,,,,12,,,,,,,,,,,,,,left,0.6332,,0,1.5,615.639,0,11,11,11,1,stimuli/bead_b.PNG,stimuli/bead_y.PNG,stimuli/bead_g.PNG,stimuli/bead_g.PNG,stimuli/bead_g.PNG,1,2,up
,,,Anusha,2023-10-10_13h44.55.508,Fish_Game,2023.1.3,MacIntel,60.0024001,,,,,,,,,,,,,13,,,,,,,,,,,,,,up,0.7342,,1,1,617.9061,0,12,12,12,1,stimuli/bead_y.PNG,stimuli/bead_b.PNG,stimuli/bead_y.PNG,stimuli/bead_g.PNG,stimuli/bead_g.PNG,1,2,up
,,,Anusha,2023-10-10_13h44.55.508,Fish_Game,2023.1.3,MacIntel,60.0024001,,,,,,,,,,,,,14,,,,,,,,,,,,,,up,0.7339,,1,1.5,620.6726,0,13,13,13,1,stimuli/bead_y.PNG,stimuli/bead_y.PNG,stimuli/bead_b.PNG,stimuli/bead_y.PNG,stimuli/bead_g.PNG,1,2,up
,,,Anusha,2023-10-10_13h44.55.508,Fish_Game,2023.1.3,MacIntel,60.0024001,,,,,,,,,,,,,15,,,,,,,,,,,,,,up,0.7697,,1,1.5,623.4725,0,14,14,14,1,stimuli/bead_y.PNG,stimuli/bead_y.PNG,stimuli/bead_y.PNG,stimuli/bead_b.PNG,stimuli/bead_y.PNG,1,2,up
