welcome_key_keys,welcome_key_rt,welcome_key_duration,prolific_id,path_id,date,expName,psychopyVersion,OS,frameRate,ins1_key_keys,ins1_key_rt,ins1_key_duration,practice_trial_started,practice_trial_num,prac_key_resp_keys,prac_key_resp_rt,prac_key_resp_duration,prac_resp_corr,prac_trials.thisRepN,prac_trials.thisTrialN,prac_trials.thisN,prac_trials.thisIndex,prac_trials.ran,trial,fish1_p,fish2_p,fish3_p,fish4_p,fish5_p,pond_p,pond_p2,pond_p3,ExpStart_key_keys,ExpStart_key_rt,ExpStart_key_duration,block number,block assignment,main_trial_started,main_trial_num,main_trial_keys,fish_interval,key_resp_time,trials.thisRepN,trials.thisTrialN,trials.thisN,trials.thisIndex,trials.ran,fish1,fish2,fish3,fish4,fish5,pond,pond2,pond3,main_trial_rt,main_trial_duration,main_resp_corr,block_correct,block_correct.length,block_correct_all,reward_amount,date_end_task,pracBlock.thisRepN,pracBlock.thisTrialN,pracBlock.thisN,pracBlock.thisIndex,pracBlock.ran,pracBlock.order,pracBlocksFile,prac_trials.order
space,1.8367,,ember,A,2024-05-08_15h25.30.183,Fish Game,2023.1.3,MacIntel,60.24096386,,,,,,,,,,,,,,,,,,,,,,,,,,,,,,,,,,,,,,,,,,,,,,,,,,,,,,,,,,,,,,
,,,ember,A,2024-05-08_15h25.30.183,Fish Game,2023.1.3,MacIntel,60.24096386,space,1.4526,,,,,,,,,,,,,,,,,,,,,,,,,,,,,,,,,,,,,,,,,,,,,,,,,,,,,,,,,,,,
,,,ember,A,2024-05-08_15h25.30.183,Fish Game,2023.1.3,MacIntel,60.24096386,,,,,,,,,,,,,,,,,,,,,,,,,,,,,,,,,,,,,,,,,,,,,,,,,,,,,,,,,,,,,,
,,,ember,A,2024-05-08_15h25.30.183,Fish Game,2023.1.3,MacIntel,60.24096386,,,,,,,,,,,,,,,,,,,,,,,,,,,,,,,,,,,,,,,,,,,,,,,,,,,,,,,,,,,,,,
,,,ember,A,2024-05-08_15h25.30.183,Fish Game,2023.1.3,MacIntel,60.24096386,,,,,,,,,,,,,,,,,,,,,,,,,,,,,,,,,,,,,,,,,,,,,,,,,,,,,,,,,,,,,,
,,,ember,A,2024-05-08_15h25.30.183,Fish Game,2023.1.3,MacIntel,60.24096386,,,,,,,,,,,,,,,,,,,,,,,,,,,,,,,,,,,,,,,,,,,,,,,,,,,,,,,,,,,,,,
,,,ember,A,2024-05-08_15h25.30.183,Fish Game,2023.1.3,MacIntel,60.24096386,,,,187.6332,0,left,0.6785,,1,0,0,0,0,1,1,stimuli/bead_b.PNG,stimuli/blank.jpg,stimuli/blank.jpg,stimuli/blank.jpg,stimuli/blank.jpg,0,1,left,,,,,,,,,,,,,,,,,,,,,,,,,,,,,,,,,,,,,,,
,,,ember,A,2024-05-08_15h25.30.183,Fish Game,2023.1.3,MacIntel,60.24096386,,,,189.6342,1,,,,,0,1,1,1,1,2,stimuli/bead_b.PNG,stimuli/bead_b.PNG,stimuli/blank.jpg,stimuli/blank.jpg,stimuli/blank.jpg,0,1,left,,,,,,,,,,,,,,,,,,,,,,,,,,,,,,,,,,,,,,,
,,,ember,A,2024-05-08_15h25.30.183,Fish Game,2023.1.3,MacIntel,60.24096386,,,,195.1517,2,,,,,0,2,2,2,1,3,stimuli/bead_g.PNG,stimuli/bead_b.PNG,stimuli/bead_b.PNG,stimuli/blank.jpg,stimuli/blank.jpg,0,1,left,,,,,,,,,,,,,,,,,,,,,,,,,,,,,,,,,,,,,,,
,,,ember,A,2024-05-08_15h25.30.183,Fish Game,2023.1.3,MacIntel,60.24096386,,,,200.6655,3,,,,,0,3,3,3,1,4,stimuli/bead_b.PNG,stimuli/bead_g.PNG,stimuli/bead_b.PNG,stimuli/bead_b.PNG,stimuli/blank.jpg,0,1,left,,,,,,,,,,,,,,,,,,,,,,,,,,,,,,,,,,,,,,,
,,,ember,A,2024-05-08_15h25.30.183,Fish Game,2023.1.3,MacIntel,60.24096386,,,,206.1813,4,,,,,0,4,4,4,1,5,stimuli/bead_b.PNG,stimuli/bead_b.PNG,stimuli/bead_g.PNG,stimuli/bead_b.PNG,stimuli/bead_b.PNG,0,1,left,,,,,,,,,,,,,,,,,,,,,,,,,,,,,,,,,,,,,,,
,,,ember,A,2024-05-08_15h25.30.183,Fish Game,2023.1.3,MacIntel,60.24096386,,,,211.6857,5,,,,,0,5,5,5,1,6,stimuli/bead_y.PNG,stimuli/bead_b.PNG,stimuli/bead_b.PNG,stimuli/bead_g.PNG,stimuli/bead_b.PNG,0,1,left,,,,,,,,,,,,,,,,,,,,,,,,,,,,,,,,,,,,,,,
,,,ember,A,2024-05-08_15h25.30.183,Fish Game,2023.1.3,MacIntel,60.24096386,,,,217.1978,6,,,,,0,6,6,6,1,7,stimuli/bead_b.PNG,stimuli/bead_y.PNG,stimuli/bead_b.PNG,stimuli/bead_b.PNG,stimuli/bead_g.PNG,0,1,left,,,,,,,,,,,,,,,,,,,,,,,,,,,,,,,,,,,,,,,
,,,ember,A,2024-05-08_15h25.30.183,Fish Game,2023.1.3,MacIntel,60.24096386,,,,222.6994,7,,,,,0,7,7,7,1,8,stimuli/bead_y.PNG,stimuli/bead_b.PNG,stimuli/bead_y.PNG,stimuli/bead_b.PNG,stimuli/bead_b.PNG,1,2,up,,,,,,,,,,,,,,,,,,,,,,,,,,,,,,,,,,,,,,,
,,,ember,A,2024-05-08_15h25.30.183,Fish Game,2023.1.3,MacIntel,60.24096386,,,,228.2151,8,,,,,0,8,8,8,1,9,stimuli/bead_y.PNG,stimuli/bead_y.PNG,stimuli/bead_b.PNG,stimuli/bead_y.PNG,stimuli/bead_b.PNG,1,2,up,,,,,,,,,,,,,,,,,,,,,,,,,,,,,,,,,,,,,,,
,,,ember,A,2024-05-08_15h25.30.183,Fish Game,2023.1.3,MacIntel,60.24096386,,,,233.7315,9,,,,,0,9,9,9,1,10,stimuli/bead_b.PNG,stimuli/bead_y.PNG,stimuli/bead_y.PNG,stimuli/bead_b.PNG,stimuli/bead_y.PNG,1,2,up,,,,,,,,,,,,,,,,,,,,,,,,,,,,,,,,,,,,,,,
,,,ember,A,2024-05-08_15h25.30.183,Fish Game,2023.1.3,MacIntel,60.24096386,,,,239.2507,10,,,,,0,10,10,10,1,11,stimuli/bead_y.PNG,stimuli/bead_b.PNG,stimuli/bead_y.PNG,stimuli/bead_y.PNG,stimuli/bead_b.PNG,1,2,up,,,,,,,,,,,,,,,,,,,,,,,,,,,,,,,,,,,,,,,
,,,ember,A,2024-05-08_15h25.30.183,Fish Game,2023.1.3,MacIntel,60.24096386,,,,244.7657,11,,,,,0,11,11,11,1,12,stimuli/bead_y.PNG,stimuli/bead_y.PNG,stimuli/bead_b.PNG,stimuli/bead_y.PNG,stimuli/bead_y.PNG,1,2,up,,,,,,,,,,,,,,,,,,,,,,,,,,,,,,,,,,,,,,,
,,,ember,A,2024-05-08_15h25.30.183,Fish Game,2023.1.3,MacIntel,60.24096386,,,,250.2824,12,,,,,0,12,12,12,1,13,stimuli/bead_b.PNG,stimuli/bead_y.PNG,stimuli/bead_y.PNG,stimuli/bead_b.PNG,stimuli/bead_y.PNG,1,2,up,,,,,,,,,,,,,,,,,,,,,,,,,,,,,,,,,,,,,,,
,,,ember,A,2024-05-08_15h25.30.183,Fish Game,2023.1.3,MacIntel,60.24096386,,,,255.7845,13,,,,,0,13,13,13,1,14,stimuli/bead_y.PNG,stimuli/bead_b.PNG,stimuli/bead_y.PNG,stimuli/bead_y.PNG,stimuli/bead_b.PNG,1,2,up,,,,,,,,,,,,,,,,,,,,,,,,,,,,,,,,,,,,,,,
,,,ember,A,2024-05-08_15h25.30.183,Fish Game,2023.1.3,MacIntel,60.24096386,,,,261.2985,14,,,,,0,14,14,14,1,15,stimuli/bead_y.PNG,stimuli/bead_y.PNG,stimuli/bead_b.PNG,stimuli/bead_y.PNG,stimuli/bead_y.PNG,1,2,up,,,,,,,,,,,,,,,,,,,,,,,,,,,,,,,,,,,,,,,
,,,ember,A,2024-05-08_15h25.30.183,Fish Game,2023.1.3,MacIntel,60.24096386,,,,271.822,0,,,,,0,0,0,0,1,1,stimuli/bead_g.PNG,stimuli/blank.jpg,stimuli/blank.jpg,stimuli/blank.jpg,stimuli/blank.jpg,2,3,right,,,,,,,,,,,,,,,,,,,,,,,,,,,,,,,,,,,,,,,
,,,ember,A,2024-05-08_15h25.30.183,Fish Game,2023.1.3,MacIntel,60.24096386,,,,277.3314,1,,,,,0,1,1,1,1,2,stimuli/bead_g.PNG,stimuli/bead_g.PNG,stimuli/blank.jpg,stimuli/blank.jpg,stimuli/blank.jpg,2,3,right,,,,,,,,,,,,,,,,,,,,,,,,,,,,,,,,,,,,,,,
,,,ember,A,2024-05-08_15h25.30.183,Fish Game,2023.1.3,MacIntel,60.24096386,,,,282.8331,2,,,,,0,2,2,2,1,3,stimuli/bead_b.PNG,stimuli/bead_g.PNG,stimuli/bead_g.PNG,stimuli/blank.jpg,stimuli/blank.jpg,2,3,right,,,,,,,,,,,,,,,,,,,,,,,,,,,,,,,,,,,,,,,
,,,ember,A,2024-05-08_15h25.30.183,Fish Game,2023.1.3,MacIntel,60.24096386,,,,288.3481,3,,,,,0,3,3,3,1,4,stimuli/bead_g.PNG,stimuli/bead_b.PNG,stimuli/bead_g.PNG,stimuli/bead_g.PNG,stimuli/blank.jpg,2,3,right,,,,,,,,,,,,,,,,,,,,,,,,,,,,,,,,,,,,,,,
,,,ember,A,2024-05-08_15h25.30.183,Fish Game,2023.1.3,MacIntel,60.24096386,,,,293.8651,4,,,,,0,4,4,4,1,5,stimuli/bead_b.PNG,stimuli/bead_g.PNG,stimuli/bead_b.PNG,stimuli/bead_g.PNG,stimuli/bead_g.PNG,2,3,right,,,,,,,,,,,,,,,,,,,,,,,,,,,,,,,,,,,,,,,
,,,ember,A,2024-05-08_15h25.30.183,Fish Game,2023.1.3,MacIntel,60.24096386,,,,299.3668,5,,,,,0,5,5,5,1,6,stimuli/bead_g.PNG,stimuli/bead_b.PNG,stimuli/bead_g.PNG,stimuli/bead_b.PNG,stimuli/bead_g.PNG,2,3,right,,,,,,,,,,,,,,,,,,,,,,,,,,,,,,,,,,,,,,,
,,,ember,A,2024-05-08_15h25.30.183,Fish Game,2023.1.3,MacIntel,60.24096386,,,,304.8827,6,,,,,0,6,6,6,1,7,stimuli/bead_g.PNG,stimuli/bead_g.PNG,stimuli/bead_b.PNG,stimuli/bead_g.PNG,stimuli/bead_b.PNG,2,3,right,,,,,,,,,,,,,,,,,,,,,,,,,,,,,,,,,,,,,,,
,,,ember,A,2024-05-08_15h25.30.183,Fish Game,2023.1.3,MacIntel,60.24096386,,,,310.3981,7,,,,,0,7,7,7,1,8,stimuli/bead_g.PNG,stimuli/bead_g.PNG,stimuli/bead_g.PNG,stimuli/bead_b.PNG,stimuli/bead_g.PNG,2,3,right,,,,,,,,,,,,,,,,,,,,,,,,,,,,,,,,,,,,,,,
,,,ember,A,2024-05-08_15h25.30.183,Fish Game,2023.1.3,MacIntel,60.24096386,,,,315.9166,8,,,,,0,8,8,8,1,9,stimuli/bead_y.PNG,stimuli/bead_g.PNG,stimuli/bead_g.PNG,stimuli/bead_g.PNG,stimuli/bead_b.PNG,1,2,up,,,,,,,,,,,,,,,,,,,,,,,,,,,,,,,,,,,,,,,
,,,ember,A,2024-05-08_15h25.30.183,Fish Game,2023.1.3,MacIntel,60.24096386,,,,321.4324,9,,,,,0,9,9,9,1,10,stimuli/bead_y.PNG,stimuli/bead_y.PNG,stimuli/bead_g.PNG,stimuli/bead_g.PNG,stimuli/bead_g.PNG,1,2,up,,,,,,,,,,,,,,,,,,,,,,,,,,,,,,,,,,,,,,,
,,,ember,A,2024-05-08_15h25.30.183,Fish Game,2023.1.3,MacIntel,60.24096386,,,,326.9498,10,,,,,0,10,10,10,1,11,stimuli/bead_y.PNG,stimuli/bead_y.PNG,stimuli/bead_y.PNG,stimuli/bead_g.PNG,stimuli/bead_g.PNG,1,2,up,,,,,,,,,,,,,,,,,,,,,,,,,,,,,,,,,,,,,,,
,,,ember,A,2024-05-08_15h25.30.183,Fish Game,2023.1.3,MacIntel,60.24096386,,,,332.4651,11,,,,,0,11,11,11,1,12,stimuli/bead_g.PNG,stimuli/bead_y.PNG,stimuli/bead_y.PNG,stimuli/bead_y.PNG,stimuli/bead_g.PNG,1,2,up,,,,,,,,,,,,,,,,,,,,,,,,,,,,,,,,,,,,,,,
,,,ember,A,2024-05-08_15h25.30.183,Fish Game,2023.1.3,MacIntel,60.24096386,,,,337.97,12,,,,,0,12,12,12,1,13,stimuli/bead_y.PNG,stimuli/bead_g.PNG,stimuli/bead_y.PNG,stimuli/bead_y.PNG,stimuli/bead_y.PNG,1,2,up,,,,,,,,,,,,,,,,,,,,,,,,,,,,,,,,,,,,,,,
,,,ember,A,2024-05-08_15h25.30.183,Fish Game,2023.1.3,MacIntel,60.24096386,,,,343.4847,13,,,,,0,13,13,13,1,14,stimuli/bead_y.PNG,stimuli/bead_y.PNG,stimuli/bead_g.PNG,stimuli/bead_y.PNG,stimuli/bead_y.PNG,1,2,up,,,,,,,,,,,,,,,,,,,,,,,,,,,,,,,,,,,,,,,
,,,ember,A,2024-05-08_15h25.30.183,Fish Game,2023.1.3,MacIntel,60.24096386,,,,348.9988,14,,,,,0,14,14,14,1,15,stimuli/bead_b.PNG,stimuli/bead_y.PNG,stimuli/bead_y.PNG,stimuli/bead_g.PNG,stimuli/bead_y.PNG,1,2,up,,,,,,,,,,,,,,,,,,,,,,,,,,,,,,,,,,,,,,,
,,,ember,A,2024-05-08_15h25.30.183,Fish Game,2023.1.3,MacIntel,60.24096386,,,,,,,,,,,,,,,1,,,,,,,,,space,33.9013,,1,1condition/mainTrials10.xlsx,393.4474,0,,0.5,,0,0,0,0,1,stimuli/bead_y.PNG,stimuli/blank.jpg,stimuli/blank.jpg,stimuli/blank.jpg,stimuli/blank.jpg,0,1,left,,,,,,,,,,,,,,,,
,,,ember,A,2024-05-08_15h25.30.183,Fish Game,2023.1.3,MacIntel,60.24096386,,,,,,,,,,,,,,,2,,,,,,,,,,,,,,398.6505,1,up,1.5,401.1321,0,1,1,1,1,stimuli/bead_b.PNG,stimuli/bead_y.PNG,stimuli/blank.jpg,stimuli/blank.jpg,stimuli/blank.jpg,0,1,left,0.9521,,0,,,,,,,,,,,,,
,,,ember,A,2024-05-08_15h25.30.183,Fish Game,2023.1.3,MacIntel,60.24096386,,,,,,,,,,,,,,,3,,,,,,,,,,,,,,401.6337,2,right,1.5,403.7344,0,2,2,2,1,stimuli/bead_b.PNG,stimuli/bead_b.PNG,stimuli/bead_y.PNG,stimuli/blank.jpg,stimuli/blank.jpg,0,1,left,0.5658,,0,,,,,,,,,,,,,
,,,ember,A,2024-05-08_15h25.30.183,Fish Game,2023.1.3,MacIntel,60.24096386,,,,,,,,,,,,,,,4,,,,,,,,,,,,,,404.2334,3,left,1,406.181,0,3,3,3,1,stimuli/bead_b.PNG,stimuli/bead_b.PNG,stimuli/bead_b.PNG,stimuli/bead_y.PNG,stimuli/blank.jpg,0,1,left,0.9364,,1,,,,,,,,,,,,,
,,,ember,A,2024-05-08_15h25.30.183,Fish Game,2023.1.3,MacIntel,60.24096386,,,,,,,,,,,,,,,5,,,,,,,,,,,,,,406.6811,4,left,1,408.2308,0,4,4,4,1,stimuli/bead_b.PNG,stimuli/bead_b.PNG,stimuli/bead_b.PNG,stimuli/bead_b.PNG,stimuli/bead_y.PNG,0,1,left,0.5178,,1,,,,,,,,,,,,,
,,,ember,A,2024-05-08_15h25.30.183,Fish Game,2023.1.3,MacIntel,60.24096386,,,,,,,,,,,,,,,6,,,,,,,,,,,,,,408.7307,5,left,0.5,409.798,0,5,5,5,1,stimuli/bead_g.PNG,stimuli/bead_b.PNG,stimuli/bead_b.PNG,stimuli/bead_b.PNG,stimuli/bead_b.PNG,0,1,left,0.5427,,1,,,,,,,,,,,,,
,,,ember,A,2024-05-08_15h25.30.183,Fish Game,2023.1.3,MacIntel,60.24096386,,,,,,,,,,,,,,,7,,,,,,,,,,,,,,410.2975,6,left,1,412.0472,0,6,6,6,1,stimuli/bead_b.PNG,stimuli/bead_g.PNG,stimuli/bead_b.PNG,stimuli/bead_b.PNG,stimuli/bead_b.PNG,0,1,left,0.7327,,1,,,,,,,,,,,,,
,,,ember,A,2024-05-08_15h25.30.183,Fish Game,2023.1.3,MacIntel,60.24096386,,,,,,,,,,,,,,,8,,,,,,,,,,,,,,412.5474,7,left,0.5,413.7976,0,7,7,7,1,stimuli/bead_b.PNG,stimuli/bead_b.PNG,stimuli/bead_g.PNG,stimuli/bead_b.PNG,stimuli/bead_b.PNG,0,1,left,0.7447,,1,,,,,,,,,,,,,
,,,ember,A,2024-05-08_15h25.30.183,Fish Game,2023.1.3,MacIntel,60.24096386,,,,,,,,,,,,,,,9,,,,,,,,,,,,,,414.2974,8,left,0.5,415.3647,0,8,8,8,1,stimuli/bead_y.PNG,stimuli/bead_b.PNG,stimuli/bead_b.PNG,stimuli/bead_g.PNG,stimuli/bead_b.PNG,0,1,left,0.5555,,1,,,,,,,,,,,,,
,,,ember,A,2024-05-08_15h25.30.183,Fish Game,2023.1.3,MacIntel,60.24096386,,,,,,,,,,,,,,,10,,,,,,,,,,,,,,415.8718,9,,1.5,415.3647,0,9,9,9,1,stimuli/bead_b.PNG,stimuli/bead_y.PNG,stimuli/bead_b.PNG,stimuli/bead_b.PNG,stimuli/bead_g.PNG,0,1,left,,,,,,,,,,,,,,,,
,,,ember,A,2024-05-08_15h25.30.183,Fish Game,2023.1.3,MacIntel,60.24096386,,,,,,,,,,,,,,,11,,,,,,,,,,,,,,421.083,10,left,0.5,422.1979,0,10,10,10,1,stimuli/bead_g.PNG,stimuli/bead_b.PNG,stimuli/bead_y.PNG,stimuli/bead_b.PNG,stimuli/bead_b.PNG,2,3,right,0.5974,,0,,,,,,,,,,,,,
,,,ember,A,2024-05-08_15h25.30.183,Fish Game,2023.1.3,MacIntel,60.24096386,,,,,,,,,,,,,,,12,,,,,,,,,,,,,,422.6984,11,left,1,424.3984,0,11,11,11,1,stimuli/bead_b.PNG,stimuli/bead_g.PNG,stimuli/bead_b.PNG,stimuli/bead_y.PNG,stimuli/bead_b.PNG,2,3,right,0.6705,,0,,,,,,,,,,,,,
,,,ember,A,2024-05-08_15h25.30.183,Fish Game,2023.1.3,MacIntel,60.24096386,,,,,,,,,,,,,,,13,,,,,,,,,,,,,,424.8986,12,left,1,426.4983,0,12,12,12,1,stimuli/bead_g.PNG,stimuli/bead_b.PNG,stimuli/bead_g.PNG,stimuli/bead_b.PNG,stimuli/bead_y.PNG,2,3,right,0.5775,,0,,,,,,,,,,,,,
,,,ember,A,2024-05-08_15h25.30.183,Fish Game,2023.1.3,MacIntel,60.24096386,,,,,,,,,,,,,,,14,,,,,,,,,,,,,,426.9973,13,left,1.5,429.0324,0,13,13,13,1,stimuli/bead_g.PNG,stimuli/bead_g.PNG,stimuli/bead_b.PNG,stimuli/bead_g.PNG,stimuli/bead_b.PNG,2,3,right,0.5159,,0,,,,,,,,,,,,,
,,,ember,A,2024-05-08_15h25.30.183,Fish Game,2023.1.3,MacIntel,60.24096386,,,,,,,,,,,,,,,15,,,,,,,,,,,,,,429.5323,14,left,1.5,431.6162,0,14,14,14,1,stimuli/bead_g.PNG,stimuli/bead_g.PNG,stimuli/bead_g.PNG,stimuli/bead_b.PNG,stimuli/bead_g.PNG,2,3,right,0.5742,,0,,,,,,,,,,,,,
,,,ember,A,2024-05-08_15h25.30.183,Fish Game,2023.1.3,MacIntel,60.24096386,,,,,,,,,,,,,,,1,,,,,,,,,,,,2,1condition/mainTrials2.xlsx,437.1219,0,up,1.5,439.2182,0,0,0,0,1,stimuli/bead_y.PNG,stimuli/blank.jpg,stimuli/blank.jpg,stimuli/blank.jpg,stimuli/blank.jpg,1,2,up,0.5703,,1,[6],,,,,,,,,,,,
,,,ember,A,2024-05-08_15h25.30.183,Fish Game,2023.1.3,MacIntel,60.24096386,,,,,,,,,,,,,,,2,,,,,,,,,,,,,,439.7145,1,up,0.5,440.7983,0,1,1,1,1,stimuli/bead_b.PNG,stimuli/bead_y.PNG,stimuli/blank.jpg,stimuli/blank.jpg,stimuli/blank.jpg,1,2,up,0.5591,,1,,,,,,,,,,,,,
,,,ember,A,2024-05-08_15h25.30.183,Fish Game,2023.1.3,MacIntel,60.24096386,,,,,,,,,,,,,,,3,,,,,,,,,,,,,,441.2981,2,up,1.5,443.4481,0,2,2,2,1,stimuli/bead_y.PNG,stimuli/bead_b.PNG,stimuli/bead_y.PNG,stimuli/blank.jpg,stimuli/blank.jpg,1,2,up,0.6158,,1,,,,,,,,,,,,,
,,,ember,A,2024-05-08_15h25.30.183,Fish Game,2023.1.3,MacIntel,60.24096386,,,,,,,,,,,,,,,4,,,,,,,,,,,,,,443.9476,3,up,0.5,445.1146,0,3,3,3,1,stimuli/bead_y.PNG,stimuli/bead_y.PNG,stimuli/bead_b.PNG,stimuli/bead_y.PNG,stimuli/blank.jpg,1,2,up,0.6382,,1,,,,,,,,,,,,,
,,,ember,A,2024-05-08_15h25.30.183,Fish Game,2023.1.3,MacIntel,60.24096386,,,,,,,,,,,,,,,5,,,,,,,,,,,,,,445.6151,4,up,0.5,446.7159,0,4,4,4,1,stimuli/bead_g.PNG,stimuli/bead_y.PNG,stimuli/bead_y.PNG,stimuli/bead_b.PNG,stimuli/bead_y.PNG,1,2,up,0.593,,1,,,,,,,,,,,,,
,,,ember,A,2024-05-08_15h25.30.183,Fish Game,2023.1.3,MacIntel,60.24096386,,,,,,,,,,,,,,,6,,,,,,,,,,,,,,447.216,5,up,0.5,448.3163,0,5,5,5,1,stimuli/bead_y.PNG,stimuli/bead_g.PNG,stimuli/bead_y.PNG,stimuli/bead_y.PNG,stimuli/bead_b.PNG,1,2,up,0.5902,,1,,,,,,,,,,,,,
,,,ember,A,2024-05-08_15h25.30.183,Fish Game,2023.1.3,MacIntel,60.24096386,,,,,,,,,,,,,,,7,,,,,,,,,,,,,,448.8168,6,up,1,450.4475,0,6,6,6,1,stimuli/bead_b.PNG,stimuli/bead_y.PNG,stimuli/bead_g.PNG,stimuli/bead_y.PNG,stimuli/bead_y.PNG,0,1,left,0.6115,,0,,,,,,,,,,,,,
,,,ember,A,2024-05-08_15h25.30.183,Fish Game,2023.1.3,MacIntel,60.24096386,,,,,,,,,,,,,,,8,,,,,,,,,,,,,,450.9475,7,left,1.5,453.1154,0,7,7,7,1,stimuli/bead_b.PNG,stimuli/bead_b.PNG,stimuli/bead_y.PNG,stimuli/bead_g.PNG,stimuli/bead_y.PNG,0,1,left,0.6613,,1,,,,,,,,,,,,,
,,,ember,A,2024-05-08_15h25.30.183,Fish Game,2023.1.3,MacIntel,60.24096386,,,,,,,,,,,,,,,9,,,,,,,,,,,,,,453.6141,8,left,1.5,455.6486,0,8,8,8,1,stimuli/bead_y.PNG,stimuli/bead_b.PNG,stimuli/bead_b.PNG,stimuli/bead_y.PNG,stimuli/bead_g.PNG,0,1,left,0.5123,,1,,,,,,,,,,,,,
,,,ember,A,2024-05-08_15h25.30.183,Fish Game,2023.1.3,MacIntel,60.24096386,,,,,,,,,,,,,,,10,,,,,,,,,,,,,,456.1474,9,left,0.5,457.2482,0,9,9,9,1,stimuli/bead_b.PNG,stimuli/bead_y.PNG,stimuli/bead_b.PNG,stimuli/bead_b.PNG,stimuli/bead_y.PNG,0,1,left,0.5756,,1,,,,,,,,,,,,,
,,,ember,A,2024-05-08_15h25.30.183,Fish Game,2023.1.3,MacIntel,60.24096386,,,,,,,,,,,,,,,11,,,,,,,,,,,,,,457.7476,10,left,1,459.265,0,10,10,10,1,stimuli/bead_b.PNG,stimuli/bead_b.PNG,stimuli/bead_y.PNG,stimuli/bead_b.PNG,stimuli/bead_b.PNG,0,1,left,0.5088,,1,,,,,,,,,,,,,
,,,ember,A,2024-05-08_15h25.30.183,Fish Game,2023.1.3,MacIntel,60.24096386,,,,,,,,,,,,,,,12,,,,,,,,,,,,,,459.766,11,left,1.5,461.9164,0,11,11,11,1,stimuli/bead_b.PNG,stimuli/bead_b.PNG,stimuli/bead_b.PNG,stimuli/bead_y.PNG,stimuli/bead_b.PNG,0,1,left,0.6424,,1,,,,,,,,,,,,,
,,,ember,A,2024-05-08_15h25.30.183,Fish Game,2023.1.3,MacIntel,60.24096386,,,,,,,,,,,,,,,13,,,,,,,,,,,,,,462.4181,12,left,0.5,463.618,0,12,12,12,1,stimuli/bead_g.PNG,stimuli/bead_b.PNG,stimuli/bead_b.PNG,stimuli/bead_b.PNG,stimuli/bead_y.PNG,0,1,left,0.668,,1,,,,,,,,,,,,,
,,,ember,A,2024-05-08_15h25.30.183,Fish Game,2023.1.3,MacIntel,60.24096386,,,,,,,,,,,,,,,14,,,,,,,,,,,,,,464.12,13,left,0.5,465.9147,0,13,13,13,1,stimuli/bead_b.PNG,stimuli/bead_g.PNG,stimuli/bead_b.PNG,stimuli/bead_b.PNG,stimuli/bead_b.PNG,0,1,left,1.2696,,1,,,,,,,,,,,,,
,,,ember,A,2024-05-08_15h25.30.183,Fish Game,2023.1.3,MacIntel,60.24096386,,,,,,,,,,,,,,,15,,,,,,,,,,,,,,466.4151,14,left,1.5,468.4845,0,14,14,14,1,stimuli/bead_b.PNG,stimuli/bead_b.PNG,stimuli/bead_g.PNG,stimuli/bead_b.PNG,stimuli/bead_b.PNG,0,1,left,0.5465,,1,,,,,,,,,,,,,
,,,ember,A,2024-05-08_15h25.30.183,Fish Game,2023.1.3,MacIntel,60.24096386,,,,,,,,,,,,,,,1,,,,,,,,,,,,3,1condition/mainTrials8.xlsx,473.9857,0,up,1,475.5321,0,0,0,0,1,stimuli/bead_y.PNG,stimuli/blank.jpg,stimuli/blank.jpg,stimuli/blank.jpg,stimuli/blank.jpg,0,1,left,0.519,,0,"[6,14]",,,,,,,,,,,,
,,,ember,A,2024-05-08_15h25.30.183,Fish Game,2023.1.3,MacIntel,60.24096386,,,,,,,,,,,,,,,2,,,,,,,,,,,,,,476.0259,1,up,1.5,478.0675,0,1,1,1,1,stimuli/bead_b.PNG,stimuli/bead_y.PNG,stimuli/blank.jpg,stimuli/blank.jpg,stimuli/blank.jpg,0,1,left,0.5229,,0,,,,,,,,,,,,,
,,,ember,A,2024-05-08_15h25.30.183,Fish Game,2023.1.3,MacIntel,60.24096386,,,,,,,,,,,,,,,3,,,,,,,,,,,,,,478.5669,2,up,1,480.1473,0,2,2,2,1,stimuli/bead_g.PNG,stimuli/bead_b.PNG,stimuli/bead_y.PNG,stimuli/blank.jpg,stimuli/blank.jpg,0,1,left,0.5605,,0,,,,,,,,,,,,,
,,,ember,A,2024-05-08_15h25.30.183,Fish Game,2023.1.3,MacIntel,60.24096386,,,,,,,,,,,,,,,4,,,,,,,,,,,,,,480.6476,3,up,1,482.2144,0,3,3,3,1,stimuli/bead_b.PNG,stimuli/bead_g.PNG,stimuli/bead_b.PNG,stimuli/bead_y.PNG,stimuli/blank.jpg,0,1,left,0.5437,,0,,,,,,,,,,,,,
,,,ember,A,2024-05-08_15h25.30.183,Fish Game,2023.1.3,MacIntel,60.24096386,,,,,,,,,,,,,,,5,,,,,,,,,,,,,,482.7142,4,left,0.5,483.8644,0,4,4,4,1,stimuli/bead_b.PNG,stimuli/bead_b.PNG,stimuli/bead_g.PNG,stimuli/bead_b.PNG,stimuli/bead_y.PNG,0,1,left,0.6454,,1,,,,,,,,,,,,,
,,,ember,A,2024-05-08_15h25.30.183,Fish Game,2023.1.3,MacIntel,60.24096386,,,,,,,,,,,,,,,6,,,,,,,,,,,,,,484.3644,5,left,1.5,486.4645,0,5,5,5,1,stimuli/bead_b.PNG,stimuli/bead_b.PNG,stimuli/bead_b.PNG,stimuli/bead_g.PNG,stimuli/bead_b.PNG,0,1,left,0.5672,,1,,,,,,,,,,,,,
,,,ember,A,2024-05-08_15h25.30.183,Fish Game,2023.1.3,MacIntel,60.24096386,,,,,,,,,,,,,,,7,,,,,,,,,,,,,,486.9647,6,left,1.5,489.0673,0,6,6,6,1,stimuli/bead_g.PNG,stimuli/bead_b.PNG,stimuli/bead_b.PNG,stimuli/bead_b.PNG,stimuli/bead_g.PNG,0,1,left,0.5669,,1,,,,,,,,,,,,,
,,,ember,A,2024-05-08_15h25.30.183,Fish Game,2023.1.3,MacIntel,60.24096386,,,,,,,,,,,,,,,8,,,,,,,,,,,,,,489.5646,7,left,1.5,491.6666,0,7,7,7,1,stimuli/bead_b.PNG,stimuli/bead_g.PNG,stimuli/bead_b.PNG,stimuli/bead_b.PNG,stimuli/bead_b.PNG,0,1,left,0.5934,,1,,,,,,,,,,,,,
,,,ember,A,2024-05-08_15h25.30.183,Fish Game,2023.1.3,MacIntel,60.24096386,,,,,,,,,,,,,,,9,,,,,,,,,,,,,,492.166,8,left,1,493.964,0,8,8,8,1,stimuli/bead_y.PNG,stimuli/bead_b.PNG,stimuli/bead_g.PNG,stimuli/bead_b.PNG,stimuli/bead_b.PNG,0,1,left,0.7923,,1,,,,,,,,,,,,,
,,,ember,A,2024-05-08_15h25.30.183,Fish Game,2023.1.3,MacIntel,60.24096386,,,,,,,,,,,,,,,10,,,,,,,,,,,,,,494.4594,9,left,1,496.0976,0,9,9,9,1,stimuli/bead_b.PNG,stimuli/bead_y.PNG,stimuli/bead_b.PNG,stimuli/bead_g.PNG,stimuli/bead_b.PNG,0,1,left,0.617,,1,,,,,,,,,,,,,
,,,ember,A,2024-05-08_15h25.30.183,Fish Game,2023.1.3,MacIntel,60.24096386,,,,,,,,,,,,,,,11,,,,,,,,,,,,,,496.5981,10,left,0.5,497.6643,0,10,10,10,1,stimuli/bead_b.PNG,stimuli/bead_b.PNG,stimuli/bead_y.PNG,stimuli/bead_b.PNG,stimuli/bead_g.PNG,0,1,left,0.5444,,1,,,,,,,,,,,,,
,,,ember,A,2024-05-08_15h25.30.183,Fish Game,2023.1.3,MacIntel,60.24096386,,,,,,,,,,,,,,,12,,,,,,,,,,,,,,498.1645,11,left,1,499.9313,0,11,11,11,1,stimuli/bead_y.PNG,stimuli/bead_b.PNG,stimuli/bead_b.PNG,stimuli/bead_y.PNG,stimuli/bead_b.PNG,1,2,up,0.7622,,0,,,,,,,,,,,,,
,,,ember,A,2024-05-08_15h25.30.183,Fish Game,2023.1.3,MacIntel,60.24096386,,,,,,,,,,,,,,,13,,,,,,,,,,,,,,500.431,12,left,1,501.9976,0,12,12,12,1,stimuli/bead_y.PNG,stimuli/bead_y.PNG,stimuli/bead_b.PNG,stimuli/bead_b.PNG,stimuli/bead_y.PNG,1,2,up,0.533,,0,,,,,,,,,,,,,
,,,ember,A,2024-05-08_15h25.30.183,Fish Game,2023.1.3,MacIntel,60.24096386,,,,,,,,,,,,,,,14,,,,,,,,,,,,,,502.4981,13,up,1.5,504.6314,0,13,13,13,1,stimuli/bead_y.PNG,stimuli/bead_y.PNG,stimuli/bead_y.PNG,stimuli/bead_b.PNG,stimuli/bead_b.PNG,1,2,up,0.6103,,1,,,,,,,,,,,,,
,,,ember,A,2024-05-08_15h25.30.183,Fish Game,2023.1.3,MacIntel,60.24096386,,,,,,,,,,,,,,,15,,,,,,,,,,,,,,505.1319,14,up,1.5,507.1829,0,14,14,14,1,stimuli/bead_g.PNG,stimuli/bead_y.PNG,stimuli/bead_y.PNG,stimuli/bead_y.PNG,stimuli/bead_b.PNG,1,2,up,0.543,,1,,,,,,,,,,,,,
,,,ember,A,2024-05-08_15h25.30.183,Fish Game,2023.1.3,MacIntel,60.24096386,,,,,,,,,,,,,,,1,,,,,,,,,,,,4,1condition/mainTrials3.xlsx,512.6857,0,up,0.5,514.0306,0,0,0,0,1,stimuli/bead_y.PNG,stimuli/blank.jpg,stimuli/blank.jpg,stimuli/blank.jpg,stimuli/blank.jpg,1,2,up,0.8192,,1,"[6,14,9]",,,,,,,,,,,,
,,,ember,A,2024-05-08_15h25.30.183,Fish Game,2023.1.3,MacIntel,60.24096386,,,,,,,,,,,,,,,2,,,,,,,,,,,,,,514.5315,1,up,1,516.1647,0,1,1,1,1,stimuli/bead_y.PNG,stimuli/bead_y.PNG,stimuli/blank.jpg,stimuli/blank.jpg,stimuli/blank.jpg,1,2,up,0.6004,,1,,,,,,,,,,,,,
,,,ember,A,2024-05-08_15h25.30.183,Fish Game,2023.1.3,MacIntel,60.24096386,,,,,,,,,,,,,,,3,,,,,,,,,,,,,,516.6645,2,up,1.5,518.7154,0,2,2,2,1,stimuli/bead_b.PNG,stimuli/bead_y.PNG,stimuli/bead_y.PNG,stimuli/blank.jpg,stimuli/blank.jpg,1,2,up,0.5468,,1,,,,,,,,,,,,,
,,,ember,A,2024-05-08_15h25.30.183,Fish Game,2023.1.3,MacIntel,60.24096386,,,,,,,,,,,,,,,4,,,,,,,,,,,,,,519.2145,3,up,1.5,521.3662,0,3,3,3,1,stimuli/bead_y.PNG,stimuli/bead_b.PNG,stimuli/bead_y.PNG,stimuli/bead_y.PNG,stimuli/blank.jpg,1,2,up,0.6468,,1,,,,,,,,,,,,,
,,,ember,A,2024-05-08_15h25.30.183,Fish Game,2023.1.3,MacIntel,60.24096386,,,,,,,,,,,,,,,5,,,,,,,,,,,,,,521.8686,4,up,0.5,522.9843,0,4,4,4,1,stimuli/bead_y.PNG,stimuli/bead_y.PNG,stimuli/bead_b.PNG,stimuli/bead_y.PNG,stimuli/bead_y.PNG,1,2,up,0.5979,,1,,,,,,,,,,,,,
,,,ember,A,2024-05-08_15h25.30.183,Fish Game,2023.1.3,MacIntel,60.24096386,,,,,,,,,,,,,,,6,,,,,,,,,,,,,,523.484,5,up,1,525.1146,0,5,5,5,1,stimuli/bead_y.PNG,stimuli/bead_y.PNG,stimuli/bead_y.PNG,stimuli/bead_b.PNG,stimuli/bead_y.PNG,1,2,up,0.6046,,1,,,,,,,,,,,,,
,,,ember,A,2024-05-08_15h25.30.183,Fish Game,2023.1.3,MacIntel,60.24096386,,,,,,,,,,,,,,,7,,,,,,,,,,,,,,525.6148,6,up,0.5,526.7147,0,6,6,6,1,stimuli/bead_b.PNG,stimuli/bead_y.PNG,stimuli/bead_y.PNG,stimuli/bead_y.PNG,stimuli/bead_b.PNG,1,2,up,0.5712,,1,,,,,,,,,,,,,
,,,ember,A,2024-05-08_15h25.30.183,Fish Game,2023.1.3,MacIntel,60.24096386,,,,,,,,,,,,,,,8,,,,,,,,,,,,,,527.2147,7,up,1,528.7476,0,7,7,7,1,stimuli/bead_y.PNG,stimuli/bead_b.PNG,stimuli/bead_y.PNG,stimuli/bead_y.PNG,stimuli/bead_y.PNG,1,2,up,0.5126,,1,,,,,,,,,,,,,
,,,ember,A,2024-05-08_15h25.30.183,Fish Game,2023.1.3,MacIntel,60.24096386,,,,,,,,,,,,,,,9,,,,,,,,,,,,,,529.248,8,up,1.5,531.414,0,8,8,8,1,stimuli/bead_y.PNG,stimuli/bead_y.PNG,stimuli/bead_b.PNG,stimuli/bead_y.PNG,stimuli/bead_y.PNG,1,2,up,0.6328,,1,,,,,,,,,,,,,
,,,ember,A,2024-05-08_15h25.30.183,Fish Game,2023.1.3,MacIntel,60.24096386,,,,,,,,,,,,,,,10,,,,,,,,,,,,,,531.9145,9,up,1.5,534.0149,0,9,9,9,1,stimuli/bead_g.PNG,stimuli/bead_y.PNG,stimuli/bead_y.PNG,stimuli/bead_b.PNG,stimuli/bead_y.PNG,1,2,up,0.5673,,1,,,,,,,,,,,,,
,,,ember,A,2024-05-08_15h25.30.183,Fish Game,2023.1.3,MacIntel,60.24096386,,,,,,,,,,,,,,,11,,,,,,,,,,,,,,534.5155,10,up,1,536.0659,0,10,10,10,1,stimuli/bead_y.PNG,stimuli/bead_g.PNG,stimuli/bead_y.PNG,stimuli/bead_y.PNG,stimuli/bead_b.PNG,1,2,up,0.5154,,1,,,,,,,,,,,,,
,,,ember,A,2024-05-08_15h25.30.183,Fish Game,2023.1.3,MacIntel,60.24096386,,,,,,,,,,,,,,,12,,,,,,,,,,,,,,536.5661,11,up,1,538.1506,0,11,11,11,1,stimuli/bead_g.PNG,stimuli/bead_y.PNG,stimuli/bead_g.PNG,stimuli/bead_y.PNG,stimuli/bead_y.PNG,1,2,up,0.5667,,1,,,,,,,,,,,,,
,,,ember,A,2024-05-08_15h25.30.183,Fish Game,2023.1.3,MacIntel,60.24096386,,,,,,,,,,,,,,,13,,,,,,,,,,,,,,538.6503,12,up,0.5,539.6977,0,12,12,12,1,stimuli/bead_y.PNG,stimuli/bead_g.PNG,stimuli/bead_y.PNG,stimuli/bead_g.PNG,stimuli/bead_y.PNG,1,2,up,0.5288,,1,,,,,,,,,,,,,
,,,ember,A,2024-05-08_15h25.30.183,Fish Game,2023.1.3,MacIntel,60.24096386,,,,,,,,,,,,,,,14,,,,,,,,,,,,,,540.2008,13,up,1.5,542.3309,0,13,13,13,1,stimuli/bead_y.PNG,stimuli/bead_y.PNG,stimuli/bead_g.PNG,stimuli/bead_y.PNG,stimuli/bead_g.PNG,1,2,up,0.6121,,1,,,,,,,,,,,,,
,,,ember,A,2024-05-08_15h25.30.183,Fish Game,2023.1.3,MacIntel,60.24096386,,,,,,,,,,,,,,,15,,,,,,,,,,,,,,542.8479,14,up,0.5,544.5809,0,14,14,14,1,stimuli/bead_y.PNG,stimuli/bead_y.PNG,stimuli/bead_y.PNG,stimuli/bead_g.PNG,stimuli/bead_y.PNG,1,2,up,1.2122,,1,,,,,,,,,,,,,
,,,ember,A,2024-05-08_15h25.30.183,Fish Game,2023.1.3,MacIntel,60.24096386,,,,,,,,,,,,,,,1,,,,,,,,,,,,5,1condition/mainTrials1.xlsx,550.0892,0,up,1.5,552.2334,0,0,0,0,1,stimuli/bead_g.PNG,stimuli/blank.jpg,stimuli/blank.jpg,stimuli/blank.jpg,stimuli/blank.jpg,2,3,right,0.6209,,0,"[6,14,9,15]",,,,,,,,,,,,
,,,ember,A,2024-05-08_15h25.30.183,Fish Game,2023.1.3,MacIntel,60.24096386,,,,,,,,,,,,,,,2,,,,,,,,,,,,,,552.7236,1,up,1,554.2676,0,1,1,1,1,stimuli/bead_y.PNG,stimuli/bead_g.PNG,stimuli/blank.jpg,stimuli/blank.jpg,stimuli/blank.jpg,2,3,right,0.5179,,0,,,,,,,,,,,,,
,,,ember,A,2024-05-08_15h25.30.183,Fish Game,2023.1.3,MacIntel,60.24096386,,,,,,,,,,,,,,,3,,,,,,,,,,,,,,554.7644,2,right,0.5,556.0308,0,2,2,2,1,stimuli/bead_g.PNG,stimuli/bead_y.PNG,stimuli/bead_g.PNG,stimuli/blank.jpg,stimuli/blank.jpg,2,3,right,0.7614,,1,,,,,,,,,,,,,
,,,ember,A,2024-05-08_15h25.30.183,Fish Game,2023.1.3,MacIntel,60.24096386,,,,,,,,,,,,,,,4,,,,,,,,,,,,,,556.5309,3,right,0.5,557.7808,0,3,3,3,1,stimuli/bead_b.PNG,stimuli/bead_g.PNG,stimuli/bead_y.PNG,stimuli/bead_g.PNG,stimuli/blank.jpg,2,3,right,0.7164,,1,,,,,,,,,,,,,
,,,ember,A,2024-05-08_15h25.30.183,Fish Game,2023.1.3,MacIntel,60.24096386,,,,,,,,,,,,,,,5,,,,,,,,,,,,,,558.2817,4,right,1,559.8458,0,4,4,4,1,stimuli/bead_g.PNG,stimuli/bead_b.PNG,stimuli/bead_g.PNG,stimuli/bead_y.PNG,stimuli/bead_g.PNG,2,3,right,0.5205,,1,,,,,,,,,,,,,
,,,ember,A,2024-05-08_15h25.30.183,Fish Game,2023.1.3,MacIntel,60.24096386,,,,,,,,,,,,,,,6,,,,,,,,,,,,,,560.3475,5,right,0.5,561.4141,0,5,5,5,1,stimuli/bead_g.PNG,stimuli/bead_g.PNG,stimuli/bead_b.PNG,stimuli/bead_g.PNG,stimuli/bead_y.PNG,2,3,right,0.5333,,1,,,,,,,,,,,,,
,,,ember,A,2024-05-08_15h25.30.183,Fish Game,2023.1.3,MacIntel,60.24096386,,,,,,,,,,,,,,,7,,,,,,,,,,,,,,561.9146,6,right,1,563.481,0,6,6,6,1,stimuli/bead_g.PNG,stimuli/bead_g.PNG,stimuli/bead_g.PNG,stimuli/bead_b.PNG,stimuli/bead_g.PNG,2,3,right,0.5584,,1,,,,,,,,,,,,,
,,,ember,A,2024-05-08_15h25.30.183,Fish Game,2023.1.3,MacIntel,60.24096386,,,,,,,,,,,,,,,8,,,,,,,,,,,,,,563.9815,7,right,1.5,566.0165,0,7,7,7,1,stimuli/bead_g.PNG,stimuli/bead_g.PNG,stimuli/bead_g.PNG,stimuli/bead_g.PNG,stimuli/bead_b.PNG,2,3,right,0.5268,,1,,,,,,,,,,,,,
,,,ember,A,2024-05-08_15h25.30.183,Fish Game,2023.1.3,MacIntel,60.24096386,,,,,,,,,,,,,,,9,,,,,,,,,,,,,,566.5162,8,right,0.5,567.6333,0,8,8,8,1,stimuli/bead_b.PNG,stimuli/bead_g.PNG,stimuli/bead_g.PNG,stimuli/bead_g.PNG,stimuli/bead_g.PNG,2,3,right,0.5847,,1,,,,,,,,,,,,,
,,,ember,A,2024-05-08_15h25.30.183,Fish Game,2023.1.3,MacIntel,60.24096386,,,,,,,,,,,,,,,10,,,,,,,,,,,,,,568.1338,9,right,1,569.8144,0,9,9,9,1,stimuli/bead_g.PNG,stimuli/bead_b.PNG,stimuli/bead_g.PNG,stimuli/bead_g.PNG,stimuli/bead_g.PNG,2,3,right,0.6523,,1,,,,,,,,,,,,,
,,,ember,A,2024-05-08_15h25.30.183,Fish Game,2023.1.3,MacIntel,60.24096386,,,,,,,,,,,,,,,11,,,,,,,,,,,,,,570.3149,10,right,0.5,571.5474,0,10,10,10,1,stimuli/bead_g.PNG,stimuli/bead_g.PNG,stimuli/bead_b.PNG,stimuli/bead_g.PNG,stimuli/bead_g.PNG,2,3,right,0.7041,,1,,,,,,,,,,,,,
,,,ember,A,2024-05-08_15h25.30.183,Fish Game,2023.1.3,MacIntel,60.24096386,,,,,,,,,,,,,,,12,,,,,,,,,,,,,,572.0474,11,right,1,573.6307,0,11,11,11,1,stimuli/bead_g.PNG,stimuli/bead_g.PNG,stimuli/bead_g.PNG,stimuli/bead_b.PNG,stimuli/bead_g.PNG,2,3,right,0.567,,1,,,,,,,,,,,,,
,,,ember,A,2024-05-08_15h25.30.183,Fish Game,2023.1.3,MacIntel,60.24096386,,,,,,,,,,,,,,,13,,,,,,,,,,,,,,574.1306,12,right,1.5,576.2479,0,12,12,12,1,stimuli/bead_b.PNG,stimuli/bead_g.PNG,stimuli/bead_g.PNG,stimuli/bead_g.PNG,stimuli/bead_b.PNG,0,1,left,0.6001,,0,,,,,,,,,,,,,
,,,ember,A,2024-05-08_15h25.30.183,Fish Game,2023.1.3,MacIntel,60.24096386,,,,,,,,,,,,,,,14,,,,,,,,,,,,,,576.748,13,right,1.5,579.3483,0,13,13,13,1,stimuli/bead_b.PNG,stimuli/bead_b.PNG,stimuli/bead_g.PNG,stimuli/bead_g.PNG,stimuli/bead_g.PNG,0,1,left,1.0829,,0,,,,,,,,,,,,,
,,,ember,A,2024-05-08_15h25.30.183,Fish Game,2023.1.3,MacIntel,60.24096386,,,,,,,,,,,,,,,15,,,,,,,,,,,,,,579.8495,14,right,1.5,581.9503,0,14,14,14,1,stimuli/bead_b.PNG,stimuli/bead_b.PNG,stimuli/bead_b.PNG,stimuli/bead_g.PNG,stimuli/bead_g.PNG,0,1,left,0.5691,,0,,,,,,,,,,,,,
,,,ember,A,2024-05-08_15h25.30.183,Fish Game,2023.1.3,MacIntel,60.24096386,,,,,,,,,,,,,,,1,,,,,,,,,,,,6,1condition/mainTrials4.xlsx,587.2567,0,right,0.5,588.311,0,0,0,0,1,stimuli/bead_g.PNG,stimuli/blank.jpg,stimuli/blank.jpg,stimuli/blank.jpg,stimuli/blank.jpg,2,3,right,0.5193,0.0217,1,"[6,14,9,15,10]",,,,,,,,,,,,
,,,ember,A,2024-05-08_15h25.30.183,Fish Game,2023.1.3,MacIntel,60.24096386,,,,,,,,,,,,,,,2,,,,,,,,,,,,,,588.8166,1,right,1,590.4146,0,1,1,1,1,stimuli/bead_g.PNG,stimuli/bead_g.PNG,stimuli/blank.jpg,stimuli/blank.jpg,stimuli/blank.jpg,2,3,right,0.5764,,1,,,,,,,,,,,,,
,,,ember,A,2024-05-08_15h25.30.183,Fish Game,2023.1.3,MacIntel,60.24096386,,,,,,,,,,,,,,,3,,,,,,,,,,,,,,590.9147,2,right,1.5,593.0808,0,2,2,2,1,stimuli/bead_b.PNG,stimuli/bead_g.PNG,stimuli/bead_g.PNG,stimuli/blank.jpg,stimuli/blank.jpg,2,3,right,0.6339,,1,,,,,,,,,,,,,
,,,ember,A,2024-05-08_15h25.30.183,Fish Game,2023.1.3,MacIntel,60.24096386,,,,,,,,,,,,,,,4,,,,,,,,,,,,,,593.581,3,right,1,595.2659,0,3,3,3,1,stimuli/bead_g.PNG,stimuli/bead_b.PNG,stimuli/bead_g.PNG,stimuli/bead_g.PNG,stimuli/blank.jpg,2,3,right,0.6728,,1,,,,,,,,,,,,,
,,,ember,A,2024-05-08_15h25.30.183,Fish Game,2023.1.3,MacIntel,60.24096386,,,,,,,,,,,,,,,5,,,,,,,,,,,,,,595.766,4,right,0.5,596.8998,0,4,4,4,1,stimuli/bead_g.PNG,stimuli/bead_g.PNG,stimuli/bead_b.PNG,stimuli/bead_g.PNG,stimuli/bead_g.PNG,2,3,right,0.6237,,1,,,,,,,,,,,,,
,,,ember,A,2024-05-08_15h25.30.183,Fish Game,2023.1.3,MacIntel,60.24096386,,,,,,,,,,,,,,,6,,,,,,,,,,,,,,597.4,5,right,1.5,599.4889,0,5,5,5,1,stimuli/bead_y.PNG,stimuli/bead_g.PNG,stimuli/bead_g.PNG,stimuli/bead_b.PNG,stimuli/bead_g.PNG,2,3,right,0.5679,,1,,,,,,,,,,,,,
,,,ember,A,2024-05-08_15h25.30.183,Fish Game,2023.1.3,MacIntel,60.24096386,,,,,,,,,,,,,,,7,,,,,,,,,,,,,,599.9817,6,right,1.5,602.0814,0,6,6,6,1,stimuli/bead_g.PNG,stimuli/bead_y.PNG,stimuli/bead_g.PNG,stimuli/bead_g.PNG,stimuli/bead_b.PNG,2,3,right,0.5714,,1,,,,,,,,,,,,,
,,,ember,A,2024-05-08_15h25.30.183,Fish Game,2023.1.3,MacIntel,60.24096386,,,,,,,,,,,,,,,8,,,,,,,,,,,,,,602.5811,7,right,0.5,603.7152,0,7,7,7,1,stimuli/bead_y.PNG,stimuli/bead_g.PNG,stimuli/bead_y.PNG,stimuli/bead_g.PNG,stimuli/bead_g.PNG,1,2,up,0.6278,,0,,,,,,,,,,,,,
,,,ember,A,2024-05-08_15h25.30.183,Fish Game,2023.1.3,MacIntel,60.24096386,,,,,,,,,,,,,,,9,,,,,,,,,,,,,,604.2146,8,right,0.5,605.3645,0,8,8,8,1,stimuli/bead_y.PNG,stimuli/bead_y.PNG,stimuli/bead_g.PNG,stimuli/bead_y.PNG,stimuli/bead_g.PNG,1,2,up,0.6174,,0,,,,,,,,,,,,,
,,,ember,A,2024-05-08_15h25.30.183,Fish Game,2023.1.3,MacIntel,60.24096386,,,,,,,,,,,,,,,10,,,,,,,,,,,,,,605.8643,9,up,1,607.4984,0,9,9,9,1,stimuli/bead_g.PNG,stimuli/bead_y.PNG,stimuli/bead_y.PNG,stimuli/bead_g.PNG,stimuli/bead_y.PNG,1,2,up,0.6001,,1,,,,,,,,,,,,,
,,,ember,A,2024-05-08_15h25.30.183,Fish Game,2023.1.3,MacIntel,60.24096386,,,,,,,,,,,,,,,11,,,,,,,,,,,,,,607.9985,10,up,1,609.5658,0,10,10,10,1,stimuli/bead_y.PNG,stimuli/bead_g.PNG,stimuli/bead_y.PNG,stimuli/bead_y.PNG,stimuli/bead_g.PNG,1,2,up,0.5522,,1,,,,,,,,,,,,,
,,,ember,A,2024-05-08_15h25.30.183,Fish Game,2023.1.3,MacIntel,60.24096386,,,,,,,,,,,,,,,12,,,,,,,,,,,,,,610.0676,11,up,0.5,611.117,0,11,11,11,1,stimuli/bead_y.PNG,stimuli/bead_y.PNG,stimuli/bead_g.PNG,stimuli/bead_y.PNG,stimuli/bead_y.PNG,1,2,up,0.5259,,1,,,,,,,,,,,,,
,,,ember,A,2024-05-08_15h25.30.183,Fish Game,2023.1.3,MacIntel,60.24096386,,,,,,,,,,,,,,,13,,,,,,,,,,,,,,611.6194,12,up,1,613.2684,0,12,12,12,1,stimuli/bead_b.PNG,stimuli/bead_y.PNG,stimuli/bead_y.PNG,stimuli/bead_g.PNG,stimuli/bead_y.PNG,1,2,up,0.6337,,1,,,,,,,,,,,,,
,,,ember,A,2024-05-08_15h25.30.183,Fish Game,2023.1.3,MacIntel,60.24096386,,,,,,,,,,,,,,,14,,,,,,,,,,,,,,613.7655,13,up,1,615.5319,0,13,13,13,1,stimuli/bead_y.PNG,stimuli/bead_b.PNG,stimuli/bead_y.PNG,stimuli/bead_y.PNG,stimuli/bead_g.PNG,1,2,up,0.7463,,1,,,,,,,,,,,,,
,,,ember,A,2024-05-08_15h25.30.183,Fish Game,2023.1.3,MacIntel,60.24096386,,,,,,,,,,,,,,,15,,,,,,,,,,,,,,616.0323,14,up,1,617.6649,0,14,14,14,1,stimuli/bead_y.PNG,stimuli/bead_y.PNG,stimuli/bead_b.PNG,stimuli/bead_y.PNG,stimuli/bead_y.PNG,1,2,up,0.6119,,1,,,,,,,,,,,,,
,,,ember,A,2024-05-08_15h25.30.183,Fish Game,2023.1.3,MacIntel,60.24096386,,,,,,,,,,,,,,,1,,,,,,,,,,,,7,1condition/mainTrials5.xlsx,623.1695,0,left,1,624.733,0,0,0,0,1,stimuli/bead_b.PNG,stimuli/blank.jpg,stimuli/blank.jpg,stimuli/blank.jpg,stimuli/blank.jpg,0,1,left,0.5349,,1,"[6,14,9,15,10,13]",,,,,,,,,,,,
,,,ember,A,2024-05-08_15h25.30.183,Fish Game,2023.1.3,MacIntel,60.24096386,,,,,,,,,,,,,,,2,,,,,,,,,,,,,,625.2324,1,left,1,626.8167,0,1,1,1,1,stimuli/bead_b.PNG,stimuli/bead_b.PNG,stimuli/blank.jpg,stimuli/blank.jpg,stimuli/blank.jpg,0,1,left,0.5772,,1,,,,,,,,,,,,,
,,,ember,A,2024-05-08_15h25.30.183,Fish Game,2023.1.3,MacIntel,60.24096386,,,,,,,,,,,,,,,3,,,,,,,,,,,,,,627.3169,2,left,0.5,628.4175,0,2,2,2,1,stimuli/bead_y.PNG,stimuli/bead_b.PNG,stimuli/bead_b.PNG,stimuli/blank.jpg,stimuli/blank.jpg,0,1,left,0.587,,1,,,,,,,,,,,,,
,,,ember,A,2024-05-08_15h25.30.183,Fish Game,2023.1.3,MacIntel,60.24096386,,,,,,,,,,,,,,,4,,,,,,,,,,,,,,628.915,3,left,0.5,629.9477,0,3,3,3,1,stimuli/bead_b.PNG,stimuli/bead_y.PNG,stimuli/bead_b.PNG,stimuli/bead_b.PNG,stimuli/blank.jpg,0,1,left,0.5101,,1,,,,,,,,,,,,,
,,,ember,A,2024-05-08_15h25.30.183,Fish Game,2023.1.3,MacIntel,60.24096386,,,,,,,,,,,,,,,5,,,,,,,,,,,,,,630.4375,4,left,0.5,631.5983,0,4,4,4,1,stimuli/bead_b.PNG,stimuli/bead_b.PNG,stimuli/bead_y.PNG,stimuli/bead_b.PNG,stimuli/bead_b.PNG,0,1,left,0.6348,,1,,,,,,,,,,,,,
,,,ember,A,2024-05-08_15h25.30.183,Fish Game,2023.1.3,MacIntel,60.24096386,,,,,,,,,,,,,,,6,,,,,,,,,,,,,,632.0986,5,left,1,633.6662,0,5,5,5,1,stimuli/bead_g.PNG,stimuli/bead_b.PNG,stimuli/bead_b.PNG,stimuli/bead_y.PNG,stimuli/bead_b.PNG,2,3,right,0.5377,,0,,,,,,,,,,,,,
,,,ember,A,2024-05-08_15h25.30.183,Fish Game,2023.1.3,MacIntel,60.24096386,,,,,,,,,,,,,,,7,,,,,,,,,,,,,,634.1656,6,left,1.5,636.3149,0,6,6,6,1,stimuli/bead_g.PNG,stimuli/bead_g.PNG,stimuli/bead_b.PNG,stimuli/bead_b.PNG,stimuli/bead_y.PNG,2,2,right,0.6225,,0,,,,,,,,,,,,,
,,,ember,A,2024-05-08_15h25.30.183,Fish Game,2023.1.3,MacIntel,60.24096386,,,,,,,,,,,,,,,8,,,,,,,,,,,,,,636.8157,7,right,0.5,638.1332,0,7,7,7,1,stimuli/bead_b.PNG,stimuli/bead_g.PNG,stimuli/bead_g.PNG,stimuli/bead_b.PNG,stimuli/bead_b.PNG,2,2,right,0.7824,,1,,,,,,,,,,,,,
,,,ember,A,2024-05-08_15h25.30.183,Fish Game,2023.1.3,MacIntel,60.24096386,,,,,,,,,,,,,,,9,,,,,,,,,,,,,,638.6346,8,right,0.5,640.2822,0,8,8,8,1,stimuli/bead_g.PNG,stimuli/bead_b.PNG,stimuli/bead_g.PNG,stimuli/bead_g.PNG,stimuli/bead_b.PNG,2,2,right,1.1268,,1,,,,,,,,,,,,,
,,,ember,A,2024-05-08_15h25.30.183,Fish Game,2023.1.3,MacIntel,60.24096386,,,,,,,,,,,,,,,10,,,,,,,,,,,,,,640.7831,9,right,0.5,642.1855,0,9,9,9,1,stimuli/bead_b.PNG,stimuli/bead_g.PNG,stimuli/bead_b.PNG,stimuli/bead_g.PNG,stimuli/bead_g.PNG,2,2,right,0.8916,,1,,,,,,,,,,,,,
,,,ember,A,2024-05-08_15h25.30.183,Fish Game,2023.1.3,MacIntel,60.24096386,,,,,,,,,,,,,,,11,,,,,,,,,,,,,,642.6859,10,right,1,644.5819,0,10,10,10,1,stimuli/bead_g.PNG,stimuli/bead_b.PNG,stimuli/bead_g.PNG,stimuli/bead_b.PNG,stimuli/bead_g.PNG,2,2,right,0.8769,,1,,,,,,,,,,,,,
,,,ember,A,2024-05-08_15h25.30.183,Fish Game,2023.1.3,MacIntel,60.24096386,,,,,,,,,,,,,,,12,,,,,,,,,,,,,,645.0824,11,right,1,646.7826,0,11,11,11,1,stimuli/bead_g.PNG,stimuli/bead_g.PNG,stimuli/bead_b.PNG,stimuli/bead_g.PNG,stimuli/bead_b.PNG,2,2,right,0.6666,,1,,,,,,,,,,,,,
,,,ember,A,2024-05-08_15h25.30.183,Fish Game,2023.1.3,MacIntel,60.24096386,,,,,,,,,,,,,,,13,,,,,,,,,,,,,,647.2814,12,right,1.5,649.332,0,12,12,12,1,stimuli/bead_g.PNG,stimuli/bead_g.PNG,stimuli/bead_g.PNG,stimuli/bead_b.PNG,stimuli/bead_g.PNG,2,3,right,0.5158,,1,,,,,,,,,,,,,
,,,ember,A,2024-05-08_15h25.30.183,Fish Game,2023.1.3,MacIntel,60.24096386,,,,,,,,,,,,,,,14,,,,,,,,,,,,,,649.8395,13,right,1.5,651.9976,0,13,13,13,1,stimuli/bead_y.PNG,stimuli/bead_g.PNG,stimuli/bead_g.PNG,stimuli/bead_g.PNG,stimuli/bead_b.PNG,2,3,right,0.6233,,1,,,,,,,,,,,,,
,,,ember,A,2024-05-08_15h25.30.183,Fish Game,2023.1.3,MacIntel,60.24096386,,,,,,,,,,,,,,,15,,,,,,,,,,,,,,652.4993,14,right,0.5,653.6148,0,14,14,14,1,stimuli/bead_g.PNG,stimuli/bead_y.PNG,stimuli/bead_g.PNG,stimuli/bead_g.PNG,stimuli/bead_g.PNG,2,3,right,0.593,,1,,,,,,,,,,,,,
,,,ember,A,2024-05-08_15h25.30.183,Fish Game,2023.1.3,MacIntel,60.24096386,,,,,,,,,,,,,,,1,,,,,,,,,,,,8,1condition/mainTrials7.xlsx,659.1211,0,up,0.5,660.2988,0,0,0,0,1,stimuli/bead_y.PNG,stimuli/blank.jpg,stimuli/blank.jpg,stimuli/blank.jpg,stimuli/blank.jpg,1,2,up,0.6505,,1,"[6,14,9,15,10,13,13]",,,,,,,,,,,,
,,,ember,A,2024-05-08_15h25.30.183,Fish Game,2023.1.3,MacIntel,60.24096386,,,,,,,,,,,,,,,2,,,,,,,,,,,,,,660.7992,1,up,1,662.3824,0,1,1,1,1,stimuli/bead_y.PNG,stimuli/bead_y.PNG,stimuli/blank.jpg,stimuli/blank.jpg,stimuli/blank.jpg,1,2,up,0.5616,,1,,,,,,,,,,,,,
,,,ember,A,2024-05-08_15h25.30.183,Fish Game,2023.1.3,MacIntel,60.24096386,,,,,,,,,,,,,,,3,,,,,,,,,,,,,,662.8788,2,up,1,664.5485,0,2,2,2,1,stimuli/bead_g.PNG,stimuli/bead_y.PNG,stimuli/bead_y.PNG,stimuli/blank.jpg,stimuli/blank.jpg,1,2,up,0.655,,1,,,,,,,,,,,,,
,,,ember,A,2024-05-08_15h25.30.183,Fish Game,2023.1.3,MacIntel,60.24096386,,,,,,,,,,,,,,,4,,,,,,,,,,,,,,665.0486,3,up,1.5,667.1653,0,3,3,3,1,stimuli/bead_y.PNG,stimuli/bead_g.PNG,stimuli/bead_y.PNG,stimuli/bead_y.PNG,stimuli/blank.jpg,1,2,up,0.5854,,1,,,,,,,,,,,,,
,,,ember,A,2024-05-08_15h25.30.183,Fish Game,2023.1.3,MacIntel,60.24096386,,,,,,,,,,,,,,,5,,,,,,,,,,,,,,667.6652,4,up,1.5,669.699,0,4,4,4,1,stimuli/bead_y.PNG,stimuli/bead_y.PNG,stimuli/bead_g.PNG,stimuli/bead_y.PNG,stimuli/bead_y.PNG,1,2,up,0.525,,1,,,,,,,,,,,,,
,,,ember,A,2024-05-08_15h25.30.183,Fish Game,2023.1.3,MacIntel,60.24096386,,,,,,,,,,,,,,,6,,,,,,,,,,,,,,670.2008,5,up,1,671.7846,0,5,5,5,1,stimuli/bead_y.PNG,stimuli/bead_y.PNG,stimuli/bead_y.PNG,stimuli/bead_g.PNG,stimuli/bead_y.PNG,1,2,up,0.5503,,1,,,,,,,,,,,,,
,,,ember,A,2024-05-08_15h25.30.183,Fish Game,2023.1.3,MacIntel,60.24096386,,,,,,,,,,,,,,,7,,,,,,,,,,,,,,672.2851,6,up,1,673.8644,0,6,6,6,1,stimuli/bead_b.PNG,stimuli/bead_y.PNG,stimuli/bead_y.PNG,stimuli/bead_y.PNG,stimuli/bead_g.PNG,1,2,up,0.562,,1,,,,,,,,,,,,,
,,,ember,A,2024-05-08_15h25.30.183,Fish Game,2023.1.3,MacIntel,60.24096386,,,,,,,,,,,,,,,8,,,,,,,,,,,,,,674.3644,7,up,0.5,675.4311,0,7,7,7,1,stimuli/bead_y.PNG,stimuli/bead_b.PNG,stimuli/bead_y.PNG,stimuli/bead_y.PNG,stimuli/bead_y.PNG,1,2,up,0.5499,,1,,,,,,,,,,,,,
,,,ember,A,2024-05-08_15h25.30.183,Fish Game,2023.1.3,MacIntel,60.24096386,,,,,,,,,,,,,,,9,,,,,,,,,,,,,,675.932,8,up,0.5,677.0986,0,8,8,8,1,stimuli/bead_y.PNG,stimuli/bead_y.PNG,stimuli/bead_b.PNG,stimuli/bead_y.PNG,stimuli/bead_y.PNG,1,2,right,0.632,,0,,,,,,,,,,,,,
,,,ember,A,2024-05-08_15h25.30.183,Fish Game,2023.1.3,MacIntel,60.24096386,,,,,,,,,,,,,,,10,,,,,,,,,,,,,,677.598,9,up,1.5,679.7147,0,9,9,9,1,stimuli/bead_g.PNG,stimuli/bead_y.PNG,stimuli/bead_y.PNG,stimuli/bead_b.PNG,stimuli/bead_y.PNG,2,3,right,0.5971,,0,,,,,,,,,,,,,
,,,ember,A,2024-05-08_15h25.30.183,Fish Game,2023.1.3,MacIntel,60.24096386,,,,,,,,,,,,,,,11,,,,,,,,,,,,,,680.2145,10,up,1,681.7487,0,10,10,10,1,stimuli/bead_g.PNG,stimuli/bead_g.PNG,stimuli/bead_y.PNG,stimuli/bead_y.PNG,stimuli/bead_b.PNG,2,3,right,0.5213,,0,,,,,,,,,,,,,
,,,ember,A,2024-05-08_15h25.30.183,Fish Game,2023.1.3,MacIntel,60.24096386,,,,,,,,,,,,,,,12,,,,,,,,,,,,,,682.2477,11,right,1.5,684.3155,0,11,11,11,1,stimuli/bead_y.PNG,stimuli/bead_g.PNG,stimuli/bead_g.PNG,stimuli/bead_y.PNG,stimuli/bead_y.PNG,2,3,right,0.5493,,1,,,,,,,,,,,,,
,,,ember,A,2024-05-08_15h25.30.183,Fish Game,2023.1.3,MacIntel,60.24096386,,,,,,,,,,,,,,,13,,,,,,,,,,,,,,684.8159,12,right,0.5,686.017,0,12,12,12,1,stimuli/bead_g.PNG,stimuli/bead_y.PNG,stimuli/bead_g.PNG,stimuli/bead_g.PNG,stimuli/bead_y.PNG,2,3,right,0.6845,,1,,,,,,,,,,,,,
,,,ember,A,2024-05-08_15h25.30.183,Fish Game,2023.1.3,MacIntel,60.24096386,,,,,,,,,,,,,,,14,,,,,,,,,,,,,,686.5168,13,right,1,688.0511,0,13,13,13,1,stimuli/bead_g.PNG,stimuli/bead_g.PNG,stimuli/bead_y.PNG,stimuli/bead_g.PNG,stimuli/bead_g.PNG,2,3,right,0.5248,,1,,,,,,,,,,,,,
,,,ember,A,2024-05-08_15h25.30.183,Fish Game,2023.1.3,MacIntel,60.24096386,,,,,,,,,,,,,,,15,,,,,,,,,,,,,,688.5559,14,right,1,690.7981,0,14,14,14,1,stimuli/bead_g.PNG,stimuli/bead_g.PNG,stimuli/bead_g.PNG,stimuli/bead_y.PNG,stimuli/bead_g.PNG,2,3,right,1.2207,,1,,,,,,,,,,,,,
,,,ember,A,2024-05-08_15h25.30.183,Fish Game,2023.1.3,MacIntel,60.24096386,,,,,,,,,,,,,,,1,,,,,,,,,,,,9,1condition/mainTrials9.xlsx,696.3043,0,right,1,697.9659,0,0,0,0,1,stimuli/bead_g.PNG,stimuli/blank.jpg,stimuli/blank.jpg,stimuli/blank.jpg,stimuli/blank.jpg,2,3,right,0.6478,,1,"[6,14,9,15,10,13,13,12]",,,,,,,,,,,,
,,,ember,A,2024-05-08_15h25.30.183,Fish Game,2023.1.3,MacIntel,60.24096386,,,,,,,,,,,,,,,2,,,,,,,,,,,,,,698.4661,1,right,1.5,700.5339,0,1,1,1,1,stimuli/bead_g.PNG,stimuli/bead_g.PNG,stimuli/blank.jpg,stimuli/blank.jpg,stimuli/blank.jpg,2,3,right,0.5525,,1,,,,,,,,,,,,,
,,,ember,A,2024-05-08_15h25.30.183,Fish Game,2023.1.3,MacIntel,60.24096386,,,,,,,,,,,,,,,3,,,,,,,,,,,,,,701.0338,2,right,1.5,703.0985,0,2,2,2,1,stimuli/bead_b.PNG,stimuli/bead_g.PNG,stimuli/bead_g.PNG,stimuli/blank.jpg,stimuli/blank.jpg,2,3,right,0.5322,,1,,,,,,,,,,,,,
,,,ember,A,2024-05-08_15h25.30.183,Fish Game,2023.1.3,MacIntel,60.24096386,,,,,,,,,,,,,,,4,,,,,,,,,,,,,,703.598,3,right,1.5,705.9981,0,3,3,3,1,stimuli/bead_g.PNG,stimuli/bead_b.PNG,stimuli/bead_g.PNG,stimuli/bead_g.PNG,stimuli/blank.jpg,2,3,right,0.8719,,1,,,,,,,,,,,,,
,,,ember,A,2024-05-08_15h25.30.183,Fish Game,2023.1.3,MacIntel,60.24096386,,,,,,,,,,,,,,,5,,,,,,,,,,,,,,706.4987,4,right,1,708.1143,0,4,4,4,1,stimuli/bead_g.PNG,stimuli/bead_g.PNG,stimuli/bead_b.PNG,stimuli/bead_g.PNG,stimuli/bead_g.PNG,2,3,right,0.595,,1,,,,,,,,,,,,,
,,,ember,A,2024-05-08_15h25.30.183,Fish Game,2023.1.3,MacIntel,60.24096386,,,,,,,,,,,,,,,6,,,,,,,,,,,,,,708.6155,5,right,0.5,709.8977,0,5,5,5,1,stimuli/bead_b.PNG,stimuli/bead_g.PNG,stimuli/bead_g.PNG,stimuli/bead_b.PNG,stimuli/bead_g.PNG,2,3,right,0.7504,,1,,,,,,,,,,,,,
,,,ember,A,2024-05-08_15h25.30.183,Fish Game,2023.1.3,MacIntel,60.24096386,,,,,,,,,,,,,,,7,,,,,,,,,,,,,,710.3982,6,right,1,712.1477,0,6,6,6,1,stimuli/bead_g.PNG,stimuli/bead_b.PNG,stimuli/bead_g.PNG,stimuli/bead_g.PNG,stimuli/bead_b.PNG,2,3,right,0.7419,,1,,,,,,,,,,,,,
,,,ember,A,2024-05-08_15h25.30.183,Fish Game,2023.1.3,MacIntel,60.24096386,,,,,,,,,,,,,,,8,,,,,,,,,,,,,,712.6481,7,right,0.5,713.7653,0,7,7,7,1,stimuli/bead_g.PNG,stimuli/bead_g.PNG,stimuli/bead_b.PNG,stimuli/bead_g.PNG,stimuli/bead_g.PNG,2,3,right,0.5996,,1,,,,,,,,,,,,,
,,,ember,A,2024-05-08_15h25.30.183,Fish Game,2023.1.3,MacIntel,60.24096386,,,,,,,,,,,,,,,9,,,,,,,,,,,,,,714.2573,8,right,0.5,715.3667,0,8,8,8,1,stimuli/bead_b.PNG,stimuli/bead_g.PNG,stimuli/bead_g.PNG,stimuli/bead_b.PNG,stimuli/bead_g.PNG,0,1,left,0.5828,,0,,,,,,,,,,,,,
,,,ember,A,2024-05-08_15h25.30.183,Fish Game,2023.1.3,MacIntel,60.24096386,,,,,,,,,,,,,,,10,,,,,,,,,,,,,,715.9574,9,right,0.5,717.6677,0,9,9,9,1,stimuli/bead_y.PNG,stimuli/bead_b.PNG,stimuli/bead_g.PNG,stimuli/bead_g.PNG,stimuli/bead_b.PNG,0,1,left,1.1951,,0,,,,,,,,,,,,,
,,,ember,A,2024-05-08_15h25.30.183,Fish Game,2023.1.3,MacIntel,60.24096386,,,,,,,,,,,,,,,11,,,,,,,,,,,,,,718.1652,10,right,1,720.1816,0,10,10,10,1,stimuli/bead_b.PNG,stimuli/bead_y.PNG,stimuli/bead_b.PNG,stimuli/bead_g.PNG,stimuli/bead_g.PNG,0,1,left,0.9885,,0,,,,,,,,,,,,,
,,,ember,A,2024-05-08_15h25.30.183,Fish Game,2023.1.3,MacIntel,60.24096386,,,,,,,,,,,,,,,12,,,,,,,,,,,,,,720.6812,11,right,1,722.332,0,11,11,11,1,stimuli/bead_b.PNG,stimuli/bead_b.PNG,stimuli/bead_y.PNG,stimuli/bead_b.PNG,stimuli/bead_g.PNG,0,1,left,0.6438,,0,,,,,,,,,,,,,
,,,ember,A,2024-05-08_15h25.30.183,Fish Game,2023.1.3,MacIntel,60.24096386,,,,,,,,,,,,,,,13,,,,,,,,,,,,,,722.8311,12,right,0.5,723.8825,0,12,12,12,1,stimuli/bead_b.PNG,stimuli/bead_b.PNG,stimuli/bead_b.PNG,stimuli/bead_y.PNG,stimuli/bead_b.PNG,0,1,left,0.545,,0,,,,,,,,,,,,,
,,,ember,A,2024-05-08_15h25.30.183,Fish Game,2023.1.3,MacIntel,60.24096386,,,,,,,,,,,,,,,14,,,,,,,,,,,,,,724.3822,13,right,1,725.9983,0,13,13,13,1,stimuli/bead_g.PNG,stimuli/bead_b.PNG,stimuli/bead_b.PNG,stimuli/bead_b.PNG,stimuli/bead_y.PNG,0,1,left,0.5942,,0,,,,,,,,,,,,,
,,,ember,A,2024-05-08_15h25.30.183,Fish Game,2023.1.3,MacIntel,60.24096386,,,,,,,,,,,,,,,15,,,,,,,,,,,,,,726.5009,14,right,1.5,728.6157,0,14,14,14,1,stimuli/bead_b.PNG,stimuli/bead_g.PNG,stimuli/bead_b.PNG,stimuli/bead_b.PNG,stimuli/bead_b.PNG,0,1,left,0.5929,,0,,,,,,,,,,,,,
,,,ember,A,2024-05-08_15h25.30.183,Fish Game,2023.1.3,MacIntel,60.24096386,,,,,,,,,,,,,,,1,,,,,,,,,,,,10,1condition/mainTrials6.xlsx,734.1233,0,left,1.5,736.3653,0,0,0,0,1,stimuli/bead_b.PNG,stimuli/blank.jpg,stimuli/blank.jpg,stimuli/blank.jpg,stimuli/blank.jpg,1,2,up,0.7165,,0,"[6,14,9,15,10,13,13,12,8]",,,,,,,,,,,,
,,,ember,A,2024-05-08_15h25.30.183,Fish Game,2023.1.3,MacIntel,60.24096386,,,,,,,,,,,,,,,2,,,,,,,,,,,,,,736.8655,1,left,1,738.4169,0,1,1,1,1,stimuli/bead_y.PNG,stimuli/bead_b.PNG,stimuli/blank.jpg,stimuli/blank.jpg,stimuli/blank.jpg,1,2,up,0.5326,,0,,,,,,,,,,,,,
,,,ember,A,2024-05-08_15h25.30.183,Fish Game,2023.1.3,MacIntel,60.24096386,,,,,,,,,,,,,,,3,,,,,,,,,,,,,,738.9159,2,right,1.5,742.0981,0,2,2,2,1,stimuli/bead_y.PNG,stimuli/bead_y.PNG,stimuli/bead_b.PNG,stimuli/blank.jpg,stimuli/blank.jpg,1,2,up,1.6548,,0,,,,,,,,,,,,,
,,,ember,A,2024-05-08_15h25.30.183,Fish Game,2023.1.3,MacIntel,60.24096386,,,,,,,,,,,,,,,4,,,,,,,,,,,,,,742.5981,3,right,1.5,745.6843,0,3,3,3,1,stimuli/bead_y.PNG,stimuli/bead_y.PNG,stimuli/bead_y.PNG,stimuli/bead_b.PNG,stimuli/blank.jpg,1,2,up,1.5785,,0,,,,,,,,,,,,,
,,,ember,A,2024-05-08_15h25.30.183,Fish Game,2023.1.3,MacIntel,60.24096386,,,,,,,,,,,,,,,5,,,,,,,,,,,,,,746.1814,4,right,0.5,747.2479,0,4,4,4,1,stimuli/bead_g.PNG,stimuli/bead_y.PNG,stimuli/bead_y.PNG,stimuli/bead_y.PNG,stimuli/bead_b.PNG,2,3,right,0.5588,,1,,,,,,,,,,,,,
,,,ember,A,2024-05-08_15h25.30.183,Fish Game,2023.1.3,MacIntel,60.24096386,,,,,,,,,,,,,,,6,,,,,,,,,,,,,,747.7515,5,right,0.5,748.9813,0,5,5,5,1,stimuli/bead_g.PNG,stimuli/bead_g.PNG,stimuli/bead_y.PNG,stimuli/bead_y.PNG,stimuli/bead_y.PNG,2,3,right,0.7109,,1,,,,,,,,,,,,,
,,,ember,A,2024-05-08_15h25.30.183,Fish Game,2023.1.3,MacIntel,60.24096386,,,,,,,,,,,,,,,7,,,,,,,,,,,,,,749.4812,6,right,1.5,751.8321,0,6,6,6,1,stimuli/bead_y.PNG,stimuli/bead_g.PNG,stimuli/bead_g.PNG,stimuli/bead_y.PNG,stimuli/bead_y.PNG,2,3,right,0.8427,,1,,,,,,,,,,,,,
,,,ember,A,2024-05-08_15h25.30.183,Fish Game,2023.1.3,MacIntel,60.24096386,,,,,,,,,,,,,,,8,,,,,,,,,,,,,,752.3322,7,right,1,753.9488,0,7,7,7,1,stimuli/bead_g.PNG,stimuli/bead_y.PNG,stimuli/bead_g.PNG,stimuli/bead_g.PNG,stimuli/bead_y.PNG,2,3,right,0.5947,,1,,,,,,,,,,,,,
,,,ember,A,2024-05-08_15h25.30.183,Fish Game,2023.1.3,MacIntel,60.24096386,,,,,,,,,,,,,,,9,,,,,,,,,,,,,,754.449,8,right,1,756.0319,0,8,8,8,1,stimuli/bead_g.PNG,stimuli/bead_g.PNG,stimuli/bead_y.PNG,stimuli/bead_g.PNG,stimuli/bead_g.PNG,2,3,right,0.5595,,1,,,,,,,,,,,,,
,,,ember,A,2024-05-08_15h25.30.183,Fish Game,2023.1.3,MacIntel,60.24096386,,,,,,,,,,,,,,,10,,,,,,,,,,,,,,756.5328,9,right,1.5,758.5659,0,9,9,9,1,stimuli/bead_g.PNG,stimuli/bead_g.PNG,stimuli/bead_g.PNG,stimuli/bead_y.PNG,stimuli/bead_g.PNG,2,3,right,0.5004,,1,,,,,,,,,,,,,
,,,ember,A,2024-05-08_15h25.30.183,Fish Game,2023.1.3,MacIntel,60.24096386,,,,,,,,,,,,,,,11,,,,,,,,,,,,,,759.068,10,right,1,760.7349,0,10,10,10,1,stimuli/bead_y.PNG,stimuli/bead_g.PNG,stimuli/bead_g.PNG,stimuli/bead_g.PNG,stimuli/bead_y.PNG,1,2,up,0.6587,,0,,,,,,,,,,,,,
,,,ember,A,2024-05-08_15h25.30.183,Fish Game,2023.1.3,MacIntel,60.24096386,,,,,,,,,,,,,,,12,,,,,,,,,,,,,,761.2352,11,left,1.5,763.9659,0,11,11,11,1,stimuli/bead_b.PNG,stimuli/bead_y.PNG,stimuli/bead_g.PNG,stimuli/bead_g.PNG,stimuli/bead_g.PNG,1,2,up,1.2026,,0,,,,,,,,,,,,,
,,,ember,A,2024-05-08_15h25.30.183,Fish Game,2023.1.3,MacIntel,60.24096386,,,,,,,,,,,,,,,13,,,,,,,,,,,,,,764.5157,12,left,0.5,765.899,0,12,12,12,1,stimuli/bead_y.PNG,stimuli/bead_b.PNG,stimuli/bead_y.PNG,stimuli/bead_g.PNG,stimuli/bead_g.PNG,1,2,up,0.8495,,0,,,,,,,,,,,,,
,,,ember,A,2024-05-08_15h25.30.183,Fish Game,2023.1.3,MacIntel,60.24096386,,,,,,,,,,,,,,,14,,,,,,,,,,,,,,766.3982,13,up,1,768.0154,0,13,13,13,1,stimuli/bead_y.PNG,stimuli/bead_y.PNG,stimuli/bead_b.PNG,stimuli/bead_y.PNG,stimuli/bead_g.PNG,1,2,up,0.6032,,1,,,,,,,,,,,,,
,,,ember,A,2024-05-08_15h25.30.183,Fish Game,2023.1.3,MacIntel,60.24096386,,,,,,,,,,,,,,,15,,,,,,,,,,,,,,768.5145,14,up,1.5,770.7312,0,14,14,14,1,stimuli/bead_y.PNG,stimuli/bead_y.PNG,stimuli/bead_y.PNG,stimuli/bead_b.PNG,stimuli/bead_y.PNG,1,2,up,0.7084,,1,,,,,,,,,,,,,
,,,ember,A,2024-05-08_15h25.30.183,Fish Game,2023.1.3,MacIntel,60.24096386,,,,,,,,,,0,14,14,14,1,15,stimuli/bead_b.PNG,stimuli/bead_y.PNG,stimuli/bead_y.PNG,stimuli/bead_g.PNG,stimuli/bead_y.PNG,1,2,up,,,,,,,,,,,,,,,,,,,,,,,,,,,"[6,14,9,15,10,13,13,12,8,8]",9,"[6,14,9,15,10,13,13,12,8,8]",0.09,2024-05-08_15h38.28.535,0,1,1,1,1,1,1condition/practiceTrials2.xlsx,14
