participant,date,expName,psychopyVersion,OS,frameRate,ins1_key.keys,ins1_key.rt,ins1_key.duration,key_resp_2.keys,key_resp_2.rt,key_resp_2.duration,fish_key_2.corr,prac_trials.thisRepN,prac_trials.thisTrialN,prac_trials.thisN,prac_trials.thisIndex,prac_trials.ran,trial,fish1_p,fish2_p,fish3_p,fish4_p,fish5_p,pond_p,pond_p2,pond_p3,ExpStart_key.keys,ExpStart_key.rt,ExpStart_key.duration,fish_key_button.keys,fish_key_button.rt,fish_key_button.duration,fish_key.corr,fish_interval,key_time,trials.thisRepN,trials.thisTrialN,trials.thisN,trials.thisIndex,trials.ran,fish1,fish2,fish3,fish4,fish5,pond,pond2,pond3
,2023-08-08_08h03.38.023,Fish_Game,2023.1.3,MacIntel,60.06006006,,,,,,,,,,,,,,,,,,,,,,,,,,,,,,,,,,,,,,,,,,,
,2023-08-08_08h03.38.023,Fish_Game,2023.1.3,MacIntel,60.06006006,space,2.1874,,,,,,,,,,,,,,,,,,,,,,,,,,,,,,,,,,,,,,,,,
,2023-08-08_08h03.38.023,Fish_Game,2023.1.3,MacIntel,60.06006006,,,,,,,,,,,,,,,,,,,,,,,,,,,,,,,,,,,,,,,,,,,
,2023-08-08_08h03.38.023,Fish_Game,2023.1.3,MacIntel,60.06006006,,,,,,,,,,,,,,,,,,,,,,,,,,,,,,,,,,,,,,,,,,,
,2023-08-08_08h03.38.023,Fish_Game,2023.1.3,MacIntel,60.06006006,,,,up,0.4012,,1,0,0,0,0,1,1,stimuli/bead_y.PNG,stimuli/blank.jpg,stimuli/blank.jpg,stimuli/blank.jpg,stimuli/blank.jpg,1,2,up,,,,,,,,,,,,,,,,,,,,,,
,2023-08-08_08h03.38.023,Fish_Game,2023.1.3,MacIntel,60.06006006,,,,up,0.3685,,1,0,1,1,1,1,2,stimuli/bead_y.PNG,stimuli/bead_y.PNG,stimuli/blank.jpg,stimuli/blank.jpg,stimuli/blank.jpg,1,2,up,,,,,,,,,,,,,,,,,,,,,,
,2023-08-08_08h03.38.023,Fish_Game,2023.1.3,MacIntel,60.06006006,,,,up,0.3298,,1,0,2,2,2,1,3,stimuli/bead_y.PNG,stimuli/bead_y.PNG,stimuli/bead_y.PNG,stimuli/blank.jpg,stimuli/blank.jpg,1,2,up,,,,,,,,,,,,,,,,,,,,,,
,2023-08-08_08h03.38.023,Fish_Game,2023.1.3,MacIntel,60.06006006,,,,up,0.7031,,1,0,3,3,3,1,4,stimuli/bead_g.PNG,stimuli/bead_y.PNG,stimuli/bead_y.PNG,stimuli/bead_y.PNG,stimuli/blank.jpg,1,2,up,,,,,,,,,,,,,,,,,,,,,,
,2023-08-08_08h03.38.023,Fish_Game,2023.1.3,MacIntel,60.06006006,,,,up,0.2835,,1,0,4,4,4,1,5,stimuli/bead_y.PNG,stimuli/bead_g.PNG,stimuli/bead_y.PNG,stimuli/bead_y.PNG,stimuli/bead_y.PNG,1,2,up,,,,,,,,,,,,,,,,,,,,,,
,2023-08-08_08h03.38.023,Fish_Game,2023.1.3,MacIntel,60.06006006,,,,up,0.7009,,1,0,5,5,5,1,6,stimuli/bead_y.PNG,stimuli/bead_y.PNG,stimuli/bead_g.PNG,stimuli/bead_y.PNG,stimuli/bead_y.PNG,1,2,up,,,,,,,,,,,,,,,,,,,,,,
,2023-08-08_08h03.38.023,Fish_Game,2023.1.3,MacIntel,60.06006006,,,,up,0.4274,,1,0,6,6,6,1,7,stimuli/bead_y.PNG,stimuli/bead_y.PNG,stimuli/bead_y.PNG,stimuli/bead_g.PNG,stimuli/bead_y.PNG,1,2,up,,,,,,,,,,,,,,,,,,,,,,
,2023-08-08_08h03.38.023,Fish_Game,2023.1.3,MacIntel,60.06006006,,,,up,1.4397,,1,0,7,7,7,1,8,stimuli/bead_b.PNG,stimuli/bead_y.PNG,stimuli/bead_y.PNG,stimuli/bead_y.PNG,stimuli/bead_g.PNG,1,2,up,,,,,,,,,,,,,,,,,,,,,,
,2023-08-08_08h03.38.023,Fish_Game,2023.1.3,MacIntel,60.06006006,,,,up,0.4066,,1,0,8,8,8,1,9,stimuli/bead_y.PNG,stimuli/bead_b.PNG,stimuli/bead_y.PNG,stimuli/bead_y.PNG,stimuli/bead_y.PNG,1,2,up,,,,,,,,,,,,,,,,,,,,,,
,2023-08-08_08h03.38.023,Fish_Game,2023.1.3,MacIntel,60.06006006,,,,up,0.5145,,1,0,9,9,9,1,10,stimuli/bead_y.PNG,stimuli/bead_y.PNG,stimuli/bead_b.PNG,stimuli/bead_y.PNG,stimuli/bead_y.PNG,1,2,up,,,,,,,,,,,,,,,,,,,,,,
,2023-08-08_08h03.38.023,Fish_Game,2023.1.3,MacIntel,60.06006006,,,,up,0.593,,0,0,10,10,10,1,11,stimuli/bead_g.PNG,stimuli/bead_y.PNG,stimuli/bead_y.PNG,stimuli/bead_b.PNG,stimuli/bead_y.PNG,2,3,right,,,,,,,,,,,,,,,,,,,,,,
,2023-08-08_08h03.38.023,Fish_Game,2023.1.3,MacIntel,60.06006006,,,,right,0.4117,,1,0,11,11,11,1,12,stimuli/bead_g.PNG,stimuli/bead_g.PNG,stimuli/bead_y.PNG,stimuli/bead_y.PNG,stimuli/bead_b.PNG,2,3,right,,,,,,,,,,,,,,,,,,,,,,
,2023-08-08_08h03.38.023,Fish_Game,2023.1.3,MacIntel,60.06006006,,,,right,0.3203,,1,0,12,12,12,1,13,stimuli/bead_b.PNG,stimuli/bead_g.PNG,stimuli/bead_g.PNG,stimuli/bead_y.PNG,stimuli/bead_y.PNG,2,3,right,,,,,,,,,,,,,,,,,,,,,,
,2023-08-08_08h03.38.023,Fish_Game,2023.1.3,MacIntel,60.06006006,,,,right,0.6016,,1,0,13,13,13,1,14,stimuli/bead_g.PNG,stimuli/bead_b.PNG,stimuli/bead_g.PNG,stimuli/bead_g.PNG,stimuli/bead_y.PNG,2,3,right,,,,,,,,,,,,,,,,,,,,,,
,2023-08-08_08h03.38.023,Fish_Game,2023.1.3,MacIntel,60.06006006,,,,right,0.3653,,1,0,14,14,14,1,15,stimuli/bead_y.PNG,stimuli/bead_g.PNG,stimuli/bead_b.PNG,stimuli/bead_g.PNG,stimuli/bead_g.PNG,2,3,right,,,,,,,,,,,,,,,,,,,,,,
,2023-08-08_08h03.38.023,Fish_Game,2023.1.3,MacIntel,60.06006006,,,,right,0.5866,,1,0,15,15,15,1,16,stimuli/bead_g.PNG,stimuli/bead_y.PNG,stimuli/bead_g.PNG,stimuli/bead_b.PNG,stimuli/bead_g.PNG,2,3,right,,,,,,,,,,,,,,,,,,,,,,
,2023-08-08_08h03.38.023,Fish_Game,2023.1.3,MacIntel,60.06006006,,,,right,0.3356,,1,0,16,16,16,1,17,stimuli/bead_g.PNG,stimuli/bead_g.PNG,stimuli/bead_y.PNG,stimuli/bead_g.PNG,stimuli/bead_b.PNG,2,3,right,,,,,,,,,,,,,,,,,,,,,,
,2023-08-08_08h03.38.023,Fish_Game,2023.1.3,MacIntel,60.06006006,,,,right,0.6877,,1,0,17,17,17,1,18,stimuli/bead_g.PNG,stimuli/bead_g.PNG,stimuli/bead_g.PNG,stimuli/bead_y.PNG,stimuli/bead_g.PNG,2,3,right,,,,,,,,,,,,,,,,,,,,,,
,2023-08-08_08h03.38.023,Fish_Game,2023.1.3,MacIntel,60.06006006,,,,right,0.3534,,1,0,18,18,18,1,19,stimuli/bead_g.PNG,stimuli/bead_g.PNG,stimuli/bead_g.PNG,stimuli/bead_g.PNG,stimuli/bead_y.PNG,2,3,right,,,,,,,,,,,,,,,,,,,,,,
,2023-08-08_08h03.38.023,Fish_Game,2023.1.3,MacIntel,60.06006006,,,,left,0.9074,,0,0,19,19,19,1,20,stimuli/bead_b.PNG,stimuli/bead_g.PNG,stimuli/bead_g.PNG,stimuli/bead_g.PNG,stimuli/bead_g.PNG,2,3,right,,,,,,,,,,,,,,,,,,,,,,
,2023-08-08_08h03.38.023,Fish_Game,2023.1.3,MacIntel,60.06006006,,,,,,,,,,,,,,,,,,,,,,space,1.709,,,,,,,,,,,,,,,,,,,,
,2023-08-08_08h03.38.023,Fish_Game,2023.1.3,MacIntel,60.06006006,,,,,,,,,,,,,1,,,,,,,,,,,,up,0.5495,,1,1.5,8/8/23,0,0,0,0,1,stimuli/bead_y.PNG,stimuli/blank.jpg,stimuli/blank.jpg,stimuli/blank.jpg,stimuli/blank.jpg,1,2,up
,2023-08-08_08h03.38.023,Fish_Game,2023.1.3,MacIntel,60.06006006,,,,,,,,,,,,,2,,,,,,,,,,,,up,0.4492,,1,1.5,8/8/23,0,1,1,1,1,stimuli/bead_y.PNG,stimuli/bead_y.PNG,stimuli/blank.jpg,stimuli/blank.jpg,stimuli/blank.jpg,1,2,up
,2023-08-08_08h03.38.023,Fish_Game,2023.1.3,MacIntel,60.06006006,,,,,,,,,,,,,3,,,,,,,,,,,,up,0.7316,,1,1,8/8/23,0,2,2,2,1,stimuli/bead_g.PNG,stimuli/bead_y.PNG,stimuli/bead_y.PNG,stimuli/blank.jpg,stimuli/blank.jpg,1,2,up
,2023-08-08_08h03.38.023,Fish_Game,2023.1.3,MacIntel,60.06006006,,,,,,,,,,,,,4,,,,,,,,,,,,up,0.8543,,1,1.5,8/8/23,0,3,3,3,1,stimuli/bead_g.PNG,stimuli/bead_g.PNG,stimuli/bead_y.PNG,stimuli/bead_y.PNG,stimuli/blank.jpg,1,2,up
,2023-08-08_08h03.38.023,Fish_Game,2023.1.3,MacIntel,60.06006006,,,,,,,,,,,,,5,,,,,,,,,,,,up,0.3996,,1,1.5,8/8/23,0,4,4,4,1,stimuli/bead_y.PNG,stimuli/bead_g.PNG,stimuli/bead_g.PNG,stimuli/bead_y.PNG,stimuli/bead_y.PNG,1,2,up
,2023-08-08_08h03.38.023,Fish_Game,2023.1.3,MacIntel,60.06006006,,,,,,,,,,,,,6,,,,,,,,,,,,up,0.7296,,1,1,8/8/23,0,5,5,5,1,stimuli/bead_y.PNG,stimuli/bead_y.PNG,stimuli/bead_g.PNG,stimuli/bead_g.PNG,stimuli/bead_y.PNG,1,2,up
,2023-08-08_08h03.38.023,Fish_Game,2023.1.3,MacIntel,60.06006006,,,,,,,,,,,,,7,,,,,,,,,,,,up,0.2717,,1,1.5,8/8/23,0,6,6,6,1,stimuli/bead_y.PNG,stimuli/bead_y.PNG,stimuli/bead_y.PNG,stimuli/bead_g.PNG,stimuli/bead_g.PNG,1,2,up
,2023-08-08_08h03.38.023,Fish_Game,2023.1.3,MacIntel,60.06006006,,,,,,,,,,,,,8,,,,,,,,,,,,up,0.655,,0,0.5,8/8/23,0,7,7,7,1,stimuli/bead_b.PNG,stimuli/bead_y.PNG,stimuli/bead_y.PNG,stimuli/bead_y.PNG,stimuli/bead_g.PNG,0,1,left
,2023-08-08_08h03.38.023,Fish_Game,2023.1.3,MacIntel,60.06006006,,,,,,,,,,,,,9,,,,,,,,,,,,up,0.5031,,0,0.5,8/8/23,0,8,8,8,1,stimuli/bead_b.PNG,stimuli/bead_b.PNG,stimuli/bead_y.PNG,stimuli/bead_y.PNG,stimuli/bead_y.PNG,0,1,left
,2023-08-08_08h03.38.023,Fish_Game,2023.1.3,MacIntel,60.06006006,,,,,,,,,,,,,10,,,,,,,,,,,,up,0.6622,,0,1.5,8/8/23,0,9,9,9,1,stimuli/bead_b.PNG,stimuli/bead_b.PNG,stimuli/bead_b.PNG,stimuli/bead_y.PNG,stimuli/bead_y.PNG,0,1,left
,2023-08-08_08h03.38.023,Fish_Game,2023.1.3,MacIntel,60.06006006,,,,,,,,,,,,,11,,,,,,,,,,,,left,0.0236,,1,1.5,8/8/23,0,10,10,10,1,stimuli/bead_g.PNG,stimuli/bead_b.PNG,stimuli/bead_b.PNG,stimuli/bead_b.PNG,stimuli/bead_y.PNG,0,1,left
,2023-08-08_08h03.38.023,Fish_Game,2023.1.3,MacIntel,60.06006006,,,,,,,,,,,,,12,,,,,,,,,,,,right,0.3362,,0,1,8/8/23,0,11,11,11,1,stimuli/bead_b.PNG,stimuli/bead_g.PNG,stimuli/bead_b.PNG,stimuli/bead_b.PNG,stimuli/bead_b.PNG,0,1,left
,2023-08-08_08h03.38.023,Fish_Game,2023.1.3,MacIntel,60.06006006,,,,,,,,,,,,,13,,,,,,,,,,,,right,0.5079,,0,0.5,8/8/23,0,12,12,12,1,stimuli/bead_y.PNG,stimuli/bead_b.PNG,stimuli/bead_g.PNG,stimuli/bead_b.PNG,stimuli/bead_b.PNG,0,1,left
,2023-08-08_08h03.38.023,Fish_Game,2023.1.3,MacIntel,60.06006006,,,,,,,,,,,,,14,,,,,,,,,,,,left,0.5868,,1,0.5,8/8/23,0,13,13,13,1,stimuli/bead_b.PNG,stimuli/bead_y.PNG,stimuli/bead_b.PNG,stimuli/bead_g.PNG,stimuli/bead_b.PNG,0,1,left
,2023-08-08_08h03.38.023,Fish_Game,2023.1.3,MacIntel,60.06006006,,,,,,,,,,,,,15,,,,,,,,,,,,left,0.295,,1,0.5,8/8/23,0,14,14,14,1,stimuli/bead_b.PNG,stimuli/bead_b.PNG,stimuli/bead_y.PNG,stimuli/bead_b.PNG,stimuli/bead_g.PNG,0,1,left
,2023-08-08_08h03.38.023,Fish_Game,2023.1.3,MacIntel,60.06006006,,,,,,,,,,,,,16,,,,,,,,,,,,left,0.2501,,1,0.5,8/8/23,0,15,15,15,1,stimuli/bead_b.PNG,stimuli/bead_b.PNG,stimuli/bead_b.PNG,stimuli/bead_y.PNG,stimuli/bead_b.PNG,0,1,left
,2023-08-08_08h03.38.023,Fish_Game,2023.1.3,MacIntel,60.06006006,,,,,,,,,,,,,17,,,,,,,,,,,,left,0.3813,,1,1.5,8/8/23,0,16,16,16,1,stimuli/bead_g.PNG,stimuli/bead_b.PNG,stimuli/bead_b.PNG,stimuli/bead_b.PNG,stimuli/bead_y.PNG,0,1,left
,2023-08-08_08h03.38.023,Fish_Game,2023.1.3,MacIntel,60.06006006,,,,,,,,,,,,,18,,,,,,,,,,,,left,0.3508,,1,1.5,8/8/23,0,17,17,17,1,stimuli/bead_b.PNG,stimuli/bead_g.PNG,stimuli/bead_b.PNG,stimuli/bead_b.PNG,stimuli/bead_b.PNG,0,1,left
,2023-08-08_08h03.38.023,Fish_Game,2023.1.3,MacIntel,60.06006006,,,,,,,,,,,,,19,,,,,,,,,,,,left,0.2581,,1,1,8/8/23,0,18,18,18,1,stimuli/bead_b.PNG,stimuli/bead_b.PNG,stimuli/bead_g.PNG,stimuli/bead_b.PNG,stimuli/bead_b.PNG,0,1,left
,2023-08-08_08h03.38.023,Fish_Game,2023.1.3,MacIntel,60.06006006,,,,,,,,,,,,,20,,,,,,,,,,,,left,0.3265,,1,1.5,8/8/23,0,19,19,19,1,stimuli/bead_b.PNG,stimuli/bead_b.PNG,stimuli/bead_b.PNG,stimuli/bead_g.PNG,stimuli/bead_b.PNG,0,1,left
,2023-08-08_08h03.38.023,Fish_Game,2023.1.3,MacIntel,60.06006006,,,,,,,,,,,,,1,,,,,,,,,,,,left,0.501,,1,1,8/8/23,0,0,0,0,1,stimuli/bead_b.PNG,stimuli/blank.jpg,stimuli/blank.jpg,stimuli/blank.jpg,stimuli/blank.jpg,0,1,left
,2023-08-08_08h03.38.023,Fish_Game,2023.1.3,MacIntel,60.06006006,,,,,,,,,,,,,2,,,,,,,,,,,,left,0.9854,,1,1.5,8/8/23,0,1,1,1,1,stimuli/bead_g.PNG,stimuli/bead_b.PNG,stimuli/blank.jpg,stimuli/blank.jpg,stimuli/blank.jpg,0,1,left
,2023-08-08_08h03.38.023,Fish_Game,2023.1.3,MacIntel,60.06006006,,,,,,,,,,,,,3,,,,,,,,,,,,left,0.398,,1,1.5,8/8/23,0,2,2,2,1,stimuli/bead_b.PNG,stimuli/bead_g.PNG,stimuli/bead_b.PNG,stimuli/blank.jpg,stimuli/blank.jpg,0,1,left
,2023-08-08_08h03.38.023,Fish_Game,2023.1.3,MacIntel,60.06006006,,,,,,,,,,,,,4,,,,,,,,,,,,left,0.5233,,1,1,8/8/23,0,3,3,3,1,stimuli/bead_y.PNG,stimuli/bead_b.PNG,stimuli/bead_g.PNG,stimuli/bead_b.PNG,stimuli/blank.jpg,0,1,left
,2023-08-08_08h03.38.023,Fish_Game,2023.1.3,MacIntel,60.06006006,,,,,,,,,,,,,5,,,,,,,,,,,,left,0.417,,1,0.5,8/8/23,0,4,4,4,1,stimuli/bead_b.PNG,stimuli/bead_y.PNG,stimuli/bead_b.PNG,stimuli/bead_g.PNG,stimuli/bead_b.PNG,0,1,left
,2023-08-08_08h03.38.023,Fish_Game,2023.1.3,MacIntel,60.06006006,,,,,,,,,,,,,6,,,,,,,,,,,,left,0.355,,1,1.5,8/8/23,0,5,5,5,1,stimuli/bead_b.PNG,stimuli/bead_b.PNG,stimuli/bead_y.PNG,stimuli/bead_b.PNG,stimuli/bead_g.PNG,0,1,left
,2023-08-08_08h03.38.023,Fish_Game,2023.1.3,MacIntel,60.06006006,,,,,,,,,,,,,7,,,,,,,,,,,,left,0.3434,,1,1.5,8/8/23,0,6,6,6,1,stimuli/bead_y.PNG,stimuli/bead_b.PNG,stimuli/bead_b.PNG,stimuli/bead_y.PNG,stimuli/bead_b.PNG,0,1,left
,2023-08-08_08h03.38.023,Fish_Game,2023.1.3,MacIntel,60.06006006,,,,,,,,,,,,,8,,,,,,,,,,,,left,0.3044,,1,1,8/8/23,0,7,7,7,1,stimuli/bead_b.PNG,stimuli/bead_y.PNG,stimuli/bead_b.PNG,stimuli/bead_b.PNG,stimuli/bead_y.PNG,0,1,left
,2023-08-08_08h03.38.023,Fish_Game,2023.1.3,MacIntel,60.06006006,,,,,,,,,,,,,9,,,,,,,,,,,,left,0.2545,,0,1.5,8/8/23,0,8,8,8,1,stimuli/bead_g.PNG,stimuli/bead_b.PNG,stimuli/bead_y.PNG,stimuli/bead_b.PNG,stimuli/bead_b.PNG,2,3,right
,2023-08-08_08h03.38.023,Fish_Game,2023.1.3,MacIntel,60.06006006,,,,,,,,,,,,,10,,,,,,,,,,,,left,0.4845,,0,0.5,8/8/23,0,9,9,9,1,stimuli/bead_g.PNG,stimuli/bead_g.PNG,stimuli/bead_b.PNG,stimuli/bead_y.PNG,stimuli/bead_b.PNG,2,3,right
,2023-08-08_08h03.38.023,Fish_Game,2023.1.3,MacIntel,60.06006006,,,,,,,,,,,,,11,,,,,,,,,,,,right,0.2834,,1,1,8/8/23,0,10,10,10,1,stimuli/bead_y.PNG,stimuli/bead_g.PNG,stimuli/bead_g.PNG,stimuli/bead_b.PNG,stimuli/bead_y.PNG,2,3,right
,2023-08-08_08h03.38.023,Fish_Game,2023.1.3,MacIntel,60.06006006,,,,,,,,,,,,,12,,,,,,,,,,,,right,0.4244,,1,0.5,8/8/23,0,11,11,11,1,stimuli/bead_g.PNG,stimuli/bead_y.PNG,stimuli/bead_g.PNG,stimuli/bead_g.PNG,stimuli/bead_b.PNG,2,3,right
,2023-08-08_08h03.38.023,Fish_Game,2023.1.3,MacIntel,60.06006006,,,,,,,,,,,,,13,,,,,,,,,,,,right,0.3529,,1,0.5,8/8/23,0,12,12,12,1,stimuli/bead_g.PNG,stimuli/bead_g.PNG,stimuli/bead_y.PNG,stimuli/bead_g.PNG,stimuli/bead_g.PNG,2,3,right
,2023-08-08_08h03.38.023,Fish_Game,2023.1.3,MacIntel,60.06006006,,,,,,,,,,,,,14,,,,,,,,,,,,right,0.3056,,1,0.5,8/8/23,0,13,13,13,1,stimuli/bead_g.PNG,stimuli/bead_g.PNG,stimuli/bead_g.PNG,stimuli/bead_y.PNG,stimuli/bead_g.PNG,2,3,right
,2023-08-08_08h03.38.023,Fish_Game,2023.1.3,MacIntel,60.06006006,,,,,,,,,,,,,15,,,,,,,,,,,,right,0.4402,,1,1,8/8/23,0,14,14,14,1,stimuli/bead_g.PNG,stimuli/bead_g.PNG,stimuli/bead_g.PNG,stimuli/bead_g.PNG,stimuli/bead_y.PNG,2,3,right
,2023-08-08_08h03.38.023,Fish_Game,2023.1.3,MacIntel,60.06006006,,,,,,,,,,,,,16,,,,,,,,,,,,right,0.2885,,1,0.5,8/8/23,0,15,15,15,1,stimuli/bead_b.PNG,stimuli/bead_g.PNG,stimuli/bead_g.PNG,stimuli/bead_g.PNG,stimuli/bead_g.PNG,2,3,right
,2023-08-08_08h03.38.023,Fish_Game,2023.1.3,MacIntel,60.06006006,,,,,,,,,,,,,17,,,,,,,,,,,,right,0.3778,,1,1.5,8/8/23,0,16,16,16,1,stimuli/bead_g.PNG,stimuli/bead_b.PNG,stimuli/bead_g.PNG,stimuli/bead_g.PNG,stimuli/bead_g.PNG,2,3,right
,2023-08-08_08h03.38.023,Fish_Game,2023.1.3,MacIntel,60.06006006,,,,,,,,,,,,,18,,,,,,,,,,,,right,0.3688,,1,1.5,8/8/23,0,17,17,17,1,stimuli/bead_b.PNG,stimuli/bead_g.PNG,stimuli/bead_b.PNG,stimuli/bead_g.PNG,stimuli/bead_g.PNG,2,3,right
,2023-08-08_08h03.38.023,Fish_Game,2023.1.3,MacIntel,60.06006006,,,,,,,,,,,,,19,,,,,,,,,,,,right,0.4166,,1,1,8/8/23,0,18,18,18,1,stimuli/bead_g.PNG,stimuli/bead_b.PNG,stimuli/bead_g.PNG,stimuli/bead_b.PNG,stimuli/bead_g.PNG,2,3,right
,2023-08-08_08h03.38.023,Fish_Game,2023.1.3,MacIntel,60.06006006,,,,,,,,,,,,,20,,,,,,,,,,,,right,0.391,,1,1.5,8/8/23,0,19,19,19,1,stimuli/bead_g.PNG,stimuli/bead_g.PNG,stimuli/bead_b.PNG,stimuli/bead_g.PNG,stimuli/bead_b.PNG,2,3,right
,2023-08-08_08h03.38.023,Fish_Game,2023.1.3,MacIntel,60.06006006,,,,,,,,,,,,,1,,,,,,,,,,,,right,0.5881,,1,0.5,8/8/23,0,0,0,0,1,stimuli/bead_g.PNG,stimuli/blank.jpg,stimuli/blank.jpg,stimuli/blank.jpg,stimuli/blank.jpg,2,3,right
,2023-08-08_08h03.38.023,Fish_Game,2023.1.3,MacIntel,60.06006006,,,,,,,,,,,,,2,,,,,,,,,,,,right,0.4559,,1,1.5,8/8/23,0,1,1,1,1,stimuli/bead_g.PNG,stimuli/bead_g.PNG,stimuli/blank.jpg,stimuli/blank.jpg,stimuli/blank.jpg,2,3,right
,2023-08-08_08h03.38.023,Fish_Game,2023.1.3,MacIntel,60.06006006,,,,,,,,,,,,,3,,,,,,,,,,,,right,0.9105,,1,0.5,8/8/23,0,2,2,2,1,stimuli/bead_g.PNG,stimuli/bead_g.PNG,stimuli/bead_g.PNG,stimuli/blank.jpg,stimuli/blank.jpg,2,3,right
,2023-08-08_08h03.38.023,Fish_Game,2023.1.3,MacIntel,60.06006006,,,,,,,,,,,,,4,,,,,,,,,,,,right,0.2732,,1,1,8/8/23,0,3,3,3,1,stimuli/bead_y.PNG,stimuli/bead_g.PNG,stimuli/bead_g.PNG,stimuli/bead_g.PNG,stimuli/blank.jpg,2,3,right
,2023-08-08_08h03.38.023,Fish_Game,2023.1.3,MacIntel,60.06006006,,,,,,,,,,,,,5,,,,,,,,,,,,right,0.3938,,1,1,8/8/23,0,4,4,4,1,stimuli/bead_g.PNG,stimuli/bead_y.PNG,stimuli/bead_g.PNG,stimuli/bead_g.PNG,stimuli/bead_g.PNG,2,3,right
,2023-08-08_08h03.38.023,Fish_Game,2023.1.3,MacIntel,60.06006006,,,,,,,,,,,,,6,,,,,,,,,,,,right,0.5587,,1,0.5,8/8/23,0,5,5,5,1,stimuli/bead_y.PNG,stimuli/bead_g.PNG,stimuli/bead_y.PNG,stimuli/bead_g.PNG,stimuli/bead_g.PNG,2,3,right
,2023-08-08_08h03.38.023,Fish_Game,2023.1.3,MacIntel,60.06006006,,,,,,,,,,,,,7,,,,,,,,,,,,right,0.5575,,1,1.5,8/8/23,0,6,6,6,1,stimuli/bead_g.PNG,stimuli/bead_y.PNG,stimuli/bead_g.PNG,stimuli/bead_y.PNG,stimuli/bead_g.PNG,2,3,right
,2023-08-08_08h03.38.023,Fish_Game,2023.1.3,MacIntel,60.06006006,,,,,,,,,,,,,8,,,,,,,,,,,,right,0.5018,,1,0.5,8/8/23,0,7,7,7,1,stimuli/bead_g.PNG,stimuli/bead_g.PNG,stimuli/bead_y.PNG,stimuli/bead_g.PNG,stimuli/bead_y.PNG,2,3,right
,2023-08-08_08h03.38.023,Fish_Game,2023.1.3,MacIntel,60.06006006,,,,,,,,,,,,,9,,,,,,,,,,,,right,0.2089,,1,1,8/8/23,0,8,8,8,1,stimuli/bead_g.PNG,stimuli/bead_g.PNG,stimuli/bead_g.PNG,stimuli/bead_y.PNG,stimuli/bead_g.PNG,2,3,right
,2023-08-08_08h03.38.023,Fish_Game,2023.1.3,MacIntel,60.06006006,,,,,,,,,,,,,10,,,,,,,,,,,,,,,,1.5,8/8/23,0,9,9,9,1,stimuli/bead_b.PNG,stimuli/bead_g.PNG,stimuli/bead_g.PNG,stimuli/bead_g.PNG,stimuli/bead_y.PNG,2,3,right
,2023-08-08_08h03.38.023,Fish_Game,2023.1.3,MacIntel,60.06006006,,,,,,,,,,,,,11,,,,,,,,,,,,right,0.4724,,1,1,8/8/23,0,10,10,10,1,stimuli/bead_g.PNG,stimuli/bead_b.PNG,stimuli/bead_g.PNG,stimuli/bead_g.PNG,stimuli/bead_g.PNG,2,3,right
,2023-08-08_08h03.38.023,Fish_Game,2023.1.3,MacIntel,60.06006006,,,,,,,,,,,,,12,,,,,,,,,,,,right,0.3104,,1,1.5,8/8/23,0,11,11,11,1,stimuli/bead_g.PNG,stimuli/bead_g.PNG,stimuli/bead_b.PNG,stimuli/bead_g.PNG,stimuli/bead_g.PNG,2,3,right
,2023-08-08_08h03.38.023,Fish_Game,2023.1.3,MacIntel,60.06006006,,,,,,,,,,,,,13,,,,,,,,,,,,right,0.3291,,1,1.5,8/8/23,0,12,12,12,1,stimuli/bead_g.PNG,stimuli/bead_g.PNG,stimuli/bead_g.PNG,stimuli/bead_b.PNG,stimuli/bead_g.PNG,2,3,right
,2023-08-08_08h03.38.023,Fish_Game,2023.1.3,MacIntel,60.06006006,,,,,,,,,,,,,14,,,,,,,,,,,,right,0.4846,,0,1.5,8/8/23,0,13,13,13,1,stimuli/bead_b.PNG,stimuli/bead_g.PNG,stimuli/bead_g.PNG,stimuli/bead_g.PNG,stimuli/bead_b.PNG,0,1,left
,2023-08-08_08h03.38.023,Fish_Game,2023.1.3,MacIntel,60.06006006,,,,,,,,,,,,,15,,,,,,,,,,,,right,0.4408,,0,0.5,8/8/23,0,14,14,14,1,stimuli/bead_b.PNG,stimuli/bead_b.PNG,stimuli/bead_g.PNG,stimuli/bead_g.PNG,stimuli/bead_g.PNG,0,1,left
,2023-08-08_08h03.38.023,Fish_Game,2023.1.3,MacIntel,60.06006006,,,,,,,,,,,,,16,,,,,,,,,,,,left,0.7011,,1,1.5,8/8/23,0,15,15,15,1,stimuli/bead_b.PNG,stimuli/bead_b.PNG,stimuli/bead_b.PNG,stimuli/bead_g.PNG,stimuli/bead_g.PNG,0,1,left
,2023-08-08_08h03.38.023,Fish_Game,2023.1.3,MacIntel,60.06006006,,,,,,,,,,,,,17,,,,,,,,,,,,left,0.3846,,1,0.5,8/8/23,0,16,16,16,1,stimuli/bead_g.PNG,stimuli/bead_b.PNG,stimuli/bead_b.PNG,stimuli/bead_b.PNG,stimuli/bead_g.PNG,0,1,left
,2023-08-08_08h03.38.023,Fish_Game,2023.1.3,MacIntel,60.06006006,,,,,,,,,,,,,18,,,,,,,,,,,,left,0.357,,1,0.5,8/8/23,0,17,17,17,1,stimuli/bead_b.PNG,stimuli/bead_g.PNG,stimuli/bead_b.PNG,stimuli/bead_b.PNG,stimuli/bead_b.PNG,0,1,left
,2023-08-08_08h03.38.023,Fish_Game,2023.1.3,MacIntel,60.06006006,,,,,,,,,,,,,19,,,,,,,,,,,,left,0.4538,,1,0.5,8/8/23,0,18,18,18,1,stimuli/bead_g.PNG,stimuli/bead_b.PNG,stimuli/bead_g.PNG,stimuli/bead_b.PNG,stimuli/bead_b.PNG,0,1,left
,2023-08-08_08h03.38.023,Fish_Game,2023.1.3,MacIntel,60.06006006,,,,,,,,,,,,,20,,,,,,,,,,,,left,0.3396,,1,1.5,8/8/23,0,19,19,19,1,stimuli/bead_b.PNG,stimuli/bead_g.PNG,stimuli/bead_b.PNG,stimuli/bead_g.PNG,stimuli/bead_b.PNG,0,1,left
,2023-08-08_08h03.38.023,Fish_Game,2023.1.3,MacIntel,60.06006006,,,,,,,,,,,,,1,,,,,,,,,,,,left,0.4589,,1,1,8/8/23,0,0,0,0,1,stimuli/bead_b.PNG,stimuli/blank.jpg,stimuli/blank.jpg,stimuli/blank.jpg,stimuli/blank.jpg,0,1,left
,2023-08-08_08h03.38.023,Fish_Game,2023.1.3,MacIntel,60.06006006,,,,,,,,,,,,,2,,,,,,,,,,,,,,,,0.5,8/8/23,0,1,1,1,1,stimuli/bead_b.PNG,stimuli/bead_b.PNG,stimuli/blank.jpg,stimuli/blank.jpg,stimuli/blank.jpg,0,1,left
,2023-08-08_08h03.38.023,Fish_Game,2023.1.3,MacIntel,60.06006006,,,,,,,,,,,,,3,,,,,,,,,,,,,,,,1.5,8/8/23,0,2,2,2,1,stimuli/bead_b.PNG,stimuli/bead_b.PNG,stimuli/bead_b.PNG,stimuli/blank.jpg,stimuli/blank.jpg,0,1,left
,2023-08-08_08h03.38.023,Fish_Game,2023.1.3,MacIntel,60.06006006,,,,,,,,,,,,,4,,,,,,,,,,,,,,,,1,8/8/23,0,3,3,3,1,stimuli/bead_b.PNG,stimuli/bead_b.PNG,stimuli/bead_b.PNG,stimuli/bead_b.PNG,stimuli/blank.jpg,0,1,left
,2023-08-08_08h03.38.023,Fish_Game,2023.1.3,MacIntel,60.06006006,,,,,,,,,,,,,5,,,,,,,,,,,,,,,,0.5,8/8/23,0,4,4,4,1,stimuli/bead_g.PNG,stimuli/bead_b.PNG,stimuli/bead_b.PNG,stimuli/bead_b.PNG,stimuli/bead_b.PNG,0,1,left
,2023-08-08_08h03.38.023,Fish_Game,2023.1.3,MacIntel,60.06006006,,,,,,,,,,,,,6,,,,,,,,,,,,,,,,0.5,8/8/23,0,5,5,5,1,stimuli/bead_b.PNG,stimuli/bead_g.PNG,stimuli/bead_b.PNG,stimuli/bead_b.PNG,stimuli/bead_b.PNG,0,1,left
,2023-08-08_08h03.38.023,Fish_Game,2023.1.3,MacIntel,60.06006006,,,,,,,,,,,,,7,,,,,,,,,,,,,,,,1,8/8/23,0,6,6,6,1,stimuli/bead_b.PNG,stimuli/bead_b.PNG,stimuli/bead_g.PNG,stimuli/bead_b.PNG,stimuli/bead_b.PNG,0,1,left
,2023-08-08_08h03.38.023,Fish_Game,2023.1.3,MacIntel,60.06006006,,,,,,,,,,,,,8,,,,,,,,,,,,,,,,0.5,8/8/23,0,7,7,7,1,stimuli/bead_b.PNG,stimuli/bead_b.PNG,stimuli/bead_b.PNG,stimuli/bead_g.PNG,stimuli/bead_b.PNG,0,1,left
,2023-08-08_08h03.38.023,Fish_Game,2023.1.3,MacIntel,60.06006006,,,,,,,,,,,,,9,,,,,,,,,,,,,,,,0.5,8/8/23,0,8,8,8,1,stimuli/bead_y.PNG,stimuli/bead_b.PNG,stimuli/bead_b.PNG,stimuli/bead_b.PNG,stimuli/bead_g.PNG,0,1,left
,2023-08-08_08h03.38.023,Fish_Game,2023.1.3,MacIntel,60.06006006,,,,,,,,,,,,,10,,,,,,,,,,,,,,,,0.5,8/8/23,0,9,9,9,1,stimuli/bead_b.PNG,stimuli/bead_y.PNG,stimuli/bead_b.PNG,stimuli/bead_b.PNG,stimuli/bead_b.PNG,0,1,left
,2023-08-08_08h03.38.023,Fish_Game,2023.1.3,MacIntel,60.06006006,,,,,,,,,,,,,11,,,,,,,,,,,,,,,,1,8/8/23,0,10,10,10,1,stimuli/bead_y.PNG,stimuli/bead_b.PNG,stimuli/bead_y.PNG,stimuli/bead_b.PNG,stimuli/bead_b.PNG,1,2,up
,2023-08-08_08h03.38.023,Fish_Game,2023.1.3,MacIntel,60.06006006,,,,,,,,,,,,,12,,,,,,,,,,,,,,,,1.5,8/8/23,0,11,11,11,1,stimuli/bead_y.PNG,stimuli/bead_y.PNG,stimuli/bead_b.PNG,stimuli/bead_y.PNG,stimuli/bead_b.PNG,1,2,up
,2023-08-08_08h03.38.023,Fish_Game,2023.1.3,MacIntel,60.06006006,,,,,,,,,,,,,13,,,,,,,,,,,,,,,,1,8/8/23,0,12,12,12,1,stimuli/bead_b.PNG,stimuli/bead_y.PNG,stimuli/bead_y.PNG,stimuli/bead_b.PNG,stimuli/bead_y.PNG,1,2,up
,2023-08-08_08h03.38.023,Fish_Game,2023.1.3,MacIntel,60.06006006,,,,,,,,,,,,,14,,,,,,,,,,,,,,,,1.5,8/8/23,0,13,13,13,1,stimuli/bead_y.PNG,stimuli/bead_b.PNG,stimuli/bead_y.PNG,stimuli/bead_y.PNG,stimuli/bead_b.PNG,1,2,up
,2023-08-08_08h03.38.023,Fish_Game,2023.1.3,MacIntel,60.06006006,,,,,,,,,,,,,15,,,,,,,,,,,,,,,,1.5,8/8/23,0,14,14,14,1,stimuli/bead_y.PNG,stimuli/bead_y.PNG,stimuli/bead_b.PNG,stimuli/bead_y.PNG,stimuli/bead_y.PNG,1,2,up
,2023-08-08_08h03.38.023,Fish_Game,2023.1.3,MacIntel,60.06006006,,,,,,,,,,,,,16,,,,,,,,,,,,,,,,1.5,8/8/23,0,15,15,15,1,stimuli/bead_g.PNG,stimuli/bead_y.PNG,stimuli/bead_y.PNG,stimuli/bead_b.PNG,stimuli/bead_y.PNG,1,2,up
,2023-08-08_08h03.38.023,Fish_Game,2023.1.3,MacIntel,60.06006006,,,,,,,,,,,,,17,,,,,,,,,,,,,,,,1.5,8/8/23,0,16,16,16,1,stimuli/bead_y.PNG,stimuli/bead_g.PNG,stimuli/bead_y.PNG,stimuli/bead_y.PNG,stimuli/bead_b.PNG,1,2,up
,2023-08-08_08h03.38.023,Fish_Game,2023.1.3,MacIntel,60.06006006,,,,,,,,,,,,,18,,,,,,,,,,,,,,,,1.5,8/8/23,0,17,17,17,1,stimuli/bead_y.PNG,stimuli/bead_y.PNG,stimuli/bead_g.PNG,stimuli/bead_y.PNG,stimuli/bead_y.PNG,1,2,up
,2023-08-08_08h03.38.023,Fish_Game,2023.1.3,MacIntel,60.06006006,,,,,,,,,,,,,19,,,,,,,,,,,,,,,,1.5,8/8/23,0,18,18,18,1,stimuli/bead_y.PNG,stimuli/bead_y.PNG,stimuli/bead_y.PNG,stimuli/bead_g.PNG,stimuli/bead_y.PNG,1,2,up
,2023-08-08_08h03.38.023,Fish_Game,2023.1.3,MacIntel,60.06006006,,,,,,,,,,,,,20,,,,,,,,,,,,,,,,1.5,8/8/23,0,19,19,19,1,stimuli/bead_y.PNG,stimuli/bead_y.PNG,stimuli/bead_y.PNG,stimuli/bead_y.PNG,stimuli/bead_g.PNG,1,2,up
,2023-08-08_08h03.38.023,Fish_Game,2023.1.3,MacIntel,60.06006006,,,,,,,,,,,,,1,,,,,,,,,,,,,,,,0.5,8/8/23,0,0,0,0,1,stimuli/bead_g.PNG,stimuli/blank.jpg,stimuli/blank.jpg,stimuli/blank.jpg,stimuli/blank.jpg,1,2,up
,2023-08-08_08h03.38.023,Fish_Game,2023.1.3,MacIntel,60.06006006,,,,,,,,,,,,,2,,,,,,,,,,,,,,,,1,8/8/23,0,1,1,1,1,stimuli/bead_y.PNG,stimuli/bead_g.PNG,stimuli/blank.jpg,stimuli/blank.jpg,stimuli/blank.jpg,1,2,up
,2023-08-08_08h03.38.023,Fish_Game,2023.1.3,MacIntel,60.06006006,,,,,,,,,,,,,3,,,,,,,,,,,,,,,,1.5,8/8/23,0,2,2,2,1,stimuli/bead_y.PNG,stimuli/bead_y.PNG,stimuli/bead_g.PNG,stimuli/blank.jpg,stimuli/blank.jpg,1,2,up
,2023-08-08_08h03.38.023,Fish_Game,2023.1.3,MacIntel,60.06006006,,,,,,,,,,,,,4,,,,,,,,,,,,,,,,1,8/8/23,0,3,3,3,1,stimuli/bead_y.PNG,stimuli/bead_y.PNG,stimuli/bead_y.PNG,stimuli/bead_g.PNG,stimuli/blank.jpg,1,2,up
,2023-08-08_08h03.38.023,Fish_Game,2023.1.3,MacIntel,60.06006006,,,,,,,,,,,,,5,,,,,,,,,,,,,,,,1.5,8/8/23,0,4,4,4,1,stimuli/bead_b.PNG,stimuli/bead_y.PNG,stimuli/bead_y.PNG,stimuli/bead_y.PNG,stimuli/bead_g.PNG,1,2,up
,2023-08-08_08h03.38.023,Fish_Game,2023.1.3,MacIntel,60.06006006,,,,,,,,,,,,,6,,,,,,,,,,,,,,,,1,8/8/23,0,5,5,5,1,stimuli/bead_y.PNG,stimuli/bead_b.PNG,stimuli/bead_y.PNG,stimuli/bead_y.PNG,stimuli/bead_y.PNG,1,2,up
,2023-08-08_08h03.38.023,Fish_Game,2023.1.3,MacIntel,60.06006006,,,,,,,,,,,,,7,,,,,,,,,,,,,,,,0.5,8/8/23,0,6,6,6,1,stimuli/bead_y.PNG,stimuli/bead_y.PNG,stimuli/bead_b.PNG,stimuli/bead_y.PNG,stimuli/bead_y.PNG,1,2,up
,2023-08-08_08h03.38.023,Fish_Game,2023.1.3,MacIntel,60.06006006,,,,,,,,,,,,,8,,,,,,,,,,,,,,,,1,8/8/23,0,7,7,7,1,stimuli/bead_y.PNG,stimuli/bead_y.PNG,stimuli/bead_y.PNG,stimuli/bead_b.PNG,stimuli/bead_y.PNG,1,2,up
,2023-08-08_08h03.38.023,Fish_Game,2023.1.3,MacIntel,60.06006006,,,,,,,,,,,,,9,,,,,,,,,,,,,,,,1,8/8/23,0,8,8,8,1,stimuli/bead_y.PNG,stimuli/bead_y.PNG,stimuli/bead_y.PNG,stimuli/bead_y.PNG,stimuli/bead_b.PNG,1,2,up
,2023-08-08_08h03.38.023,Fish_Game,2023.1.3,MacIntel,60.06006006,,,,,,,,,,,,,10,,,,,,,,,,,,,,,,0.5,8/8/23,0,9,9,9,1,stimuli/bead_b.PNG,stimuli/bead_y.PNG,stimuli/bead_y.PNG,stimuli/bead_y.PNG,stimuli/bead_y.PNG,1,2,up
,2023-08-08_08h03.38.023,Fish_Game,2023.1.3,MacIntel,60.06006006,,,,,,,,,,,,,11,,,,,,,,,,,,,,,,1.5,8/8/23,0,10,10,10,1,stimuli/bead_y.PNG,stimuli/bead_b.PNG,stimuli/bead_y.PNG,stimuli/bead_y.PNG,stimuli/bead_y.PNG,1,2,up
,2023-08-08_08h03.38.023,Fish_Game,2023.1.3,MacIntel,60.06006006,,,,,,,,,,,,,12,,,,,,,,,,,,,,,,0.5,8/8/23,0,11,11,11,1,stimuli/bead_y.PNG,stimuli/bead_y.PNG,stimuli/bead_b.PNG,stimuli/bead_y.PNG,stimuli/bead_y.PNG,1,2,up
,2023-08-08_08h03.38.023,Fish_Game,2023.1.3,MacIntel,60.06006006,,,,,,,,,,,,,13,,,,,,,,,,,,,,,,1,8/8/23,0,12,12,12,1,stimuli/bead_g.PNG,stimuli/bead_y.PNG,stimuli/bead_y.PNG,stimuli/bead_b.PNG,stimuli/bead_y.PNG,2,3,right
,2023-08-08_08h03.38.023,Fish_Game,2023.1.3,MacIntel,60.06006006,,,,,,,,,,,,,14,,,,,,,,,,,,,,,,1.5,8/8/23,0,13,13,13,1,stimuli/bead_g.PNG,stimuli/bead_g.PNG,stimuli/bead_y.PNG,stimuli/bead_y.PNG,stimuli/bead_b.PNG,2,3,right
,2023-08-08_08h03.38.023,Fish_Game,2023.1.3,MacIntel,60.06006006,,,,,,,,,,,,,15,,,,,,,,,,,,,,,,0.5,8/8/23,0,14,14,14,1,stimuli/bead_y.PNG,stimuli/bead_g.PNG,stimuli/bead_g.PNG,stimuli/bead_y.PNG,stimuli/bead_y.PNG,2,3,right
,2023-08-08_08h03.38.023,Fish_Game,2023.1.3,MacIntel,60.06006006,,,,,,,,,,,,,16,,,,,,,,,,,,,,,,1,8/8/23,0,15,15,15,1,stimuli/bead_g.PNG,stimuli/bead_y.PNG,stimuli/bead_g.PNG,stimuli/bead_g.PNG,stimuli/bead_y.PNG,2,3,right
,2023-08-08_08h03.38.023,Fish_Game,2023.1.3,MacIntel,60.06006006,,,,,,,,,,,,,17,,,,,,,,,,,,,,,,1.5,8/8/23,0,16,16,16,1,stimuli/bead_g.PNG,stimuli/bead_g.PNG,stimuli/bead_y.PNG,stimuli/bead_g.PNG,stimuli/bead_g.PNG,2,3,right
,2023-08-08_08h03.38.023,Fish_Game,2023.1.3,MacIntel,60.06006006,,,,,,,,,,,,,18,,,,,,,,,,,,,,,,0.5,8/8/23,0,17,17,17,1,stimuli/bead_g.PNG,stimuli/bead_g.PNG,stimuli/bead_g.PNG,stimuli/bead_y.PNG,stimuli/bead_g.PNG,2,3,right
,2023-08-08_08h03.38.023,Fish_Game,2023.1.3,MacIntel,60.06006006,,,,,,,,,,,,,19,,,,,,,,,,,,,,,,1.5,8/8/23,0,18,18,18,1,stimuli/bead_b.PNG,stimuli/bead_g.PNG,stimuli/bead_g.PNG,stimuli/bead_g.PNG,stimuli/bead_y.PNG,2,3,right
,2023-08-08_08h03.38.023,Fish_Game,2023.1.3,MacIntel,60.06006006,,,,,,,,,,,,,20,,,,,,,,,,,,,,,,1,8/8/23,0,19,19,19,1,stimuli/bead_g.PNG,stimuli/bead_b.PNG,stimuli/bead_g.PNG,stimuli/bead_g.PNG,stimuli/bead_g.PNG,2,3,right
,2023-08-08_08h03.38.023,Fish_Game,2023.1.3,MacIntel,60.06006006,,,,,,,,,,,,,1,,,,,,,,,,,,,,,,0.5,8/8/23,0,0,0,0,1,stimuli/bead_y.PNG,stimuli/blank.jpg,stimuli/blank.jpg,stimuli/blank.jpg,stimuli/blank.jpg,2,3,right
,2023-08-08_08h03.38.023,Fish_Game,2023.1.3,MacIntel,60.06006006,,,,,,,,,,,,,2,,,,,,,,,,,,,,,,1,8/8/23,0,1,1,1,1,stimuli/bead_g.PNG,stimuli/bead_y.PNG,stimuli/blank.jpg,stimuli/blank.jpg,stimuli/blank.jpg,2,3,right
,2023-08-08_08h03.38.023,Fish_Game,2023.1.3,MacIntel,60.06006006,,,,,,,,,,,,,3,,,,,,,,,,,,,,,,1,8/8/23,0,2,2,2,1,stimuli/bead_g.PNG,stimuli/bead_g.PNG,stimuli/bead_y.PNG,stimuli/blank.jpg,stimuli/blank.jpg,2,3,right
,2023-08-08_08h03.38.023,Fish_Game,2023.1.3,MacIntel,60.06006006,,,,,,,,,,,,,4,,,,,,,,,,,,,,,,0.5,8/8/23,0,3,3,3,1,stimuli/bead_g.PNG,stimuli/bead_g.PNG,stimuli/bead_g.PNG,stimuli/bead_y.PNG,stimuli/blank.jpg,2,3,right
