welcome_key.keys,welcome_key.rt,welcome_key.duration,participant,date,expName,psychopyVersion,OS,frameRate,ins1_key.keys,ins1_key.rt,ins1_key.duration,key_resp_2.keys,key_resp_2.rt,key_resp_2.duration,fish_key_2.corr,prac_trials.thisRepN,prac_trials.thisTrialN,prac_trials.thisN,prac_trials.thisIndex,prac_trials.ran,trial,fish1_p,fish2_p,fish3_p,fish4_p,fish5_p,pond_p,pond_p2,pond_p3,ExpStart_key.keys,ExpStart_key.rt,ExpStart_key.duration,block number,block assignment,fish_key_button.keys,fish_key_button.rt,fish_key_button.duration,fish_key.corr,fish_interval,key_resp_time,trials.thisRepN,trials.thisTrialN,trials.thisN,trials.thisIndex,trials.ran,fish1,fish2,fish3,fish4,fish5,pond,pond2,pond3
space,2.6003,,,2023-10-10_11h10.36.201,Fish_Game,2023.1.3,MacIntel,59.99880002,,,,,,,,,,,,,,,,,,,,,,,,,,,,,,,,,,,,,,,,,,,,,
,,,,2023-10-10_11h10.36.201,Fish_Game,2023.1.3,MacIntel,59.99880002,,,,,,,,,,,,,,,,,,,,,,,,,,,,,,,,,,,,,,,,,,,,,
,,,,2023-10-10_11h10.36.201,Fish_Game,2023.1.3,MacIntel,59.99880002,space,0.5147,,,,,,,,,,,,,,,,,,,,,,,,,,,,,,,,,,,,,,,,,,,
,,,,2023-10-10_11h10.36.201,Fish_Game,2023.1.3,MacIntel,59.99880002,,,,,,,,,,,,,,,,,,,,,,,,,,,,,,,,,,,,,,,,,,,,,
,,,,2023-10-10_11h10.36.201,Fish_Game,2023.1.3,MacIntel,59.99880002,,,,,,,,,,,,,,,,,,,,,,,,,,,,,,,,,,,,,,,,,,,,,
,,,,2023-10-10_11h10.36.201,Fish_Game,2023.1.3,MacIntel,59.99880002,,,,left,2.7837,,1,0,0,0,0,1,1,stimuli/bead_b.PNG,stimuli/blank.jpg,stimuli/blank.jpg,stimuli/blank.jpg,stimuli/blank.jpg,0,1,left,,,,,,,,,,,,,,,,,,,,,,,,
,,,,2023-10-10_11h10.36.201,Fish_Game,2023.1.3,MacIntel,59.99880002,,,,left,0.4742,,1,0,1,1,1,1,2,stimuli/bead_b.PNG,stimuli/bead_b.PNG,stimuli/blank.jpg,stimuli/blank.jpg,stimuli/blank.jpg,0,1,left,,,,,,,,,,,,,,,,,,,,,,,,
,,,,2023-10-10_11h10.36.201,Fish_Game,2023.1.3,MacIntel,59.99880002,,,,left,0.9194,,1,0,2,2,2,1,3,stimuli/bead_g.PNG,stimuli/bead_b.PNG,stimuli/bead_b.PNG,stimuli/blank.jpg,stimuli/blank.jpg,0,1,left,,,,,,,,,,,,,,,,,,,,,,,,
,,,,2023-10-10_11h10.36.201,Fish_Game,2023.1.3,MacIntel,59.99880002,,,,left,0.5475,,1,0,3,3,3,1,4,stimuli/bead_b.PNG,stimuli/bead_g.PNG,stimuli/bead_b.PNG,stimuli/bead_b.PNG,stimuli/blank.jpg,0,1,left,,,,,,,,,,,,,,,,,,,,,,,,
,,,,2023-10-10_11h10.36.201,Fish_Game,2023.1.3,MacIntel,59.99880002,,,,left,0.6693,,1,0,4,4,4,1,5,stimuli/bead_b.PNG,stimuli/bead_b.PNG,stimuli/bead_g.PNG,stimuli/bead_b.PNG,stimuli/bead_b.PNG,0,1,left,,,,,,,,,,,,,,,,,,,,,,,,
,,,,2023-10-10_11h10.36.201,Fish_Game,2023.1.3,MacIntel,59.99880002,,,,left,0.9033,,1,0,5,5,5,1,6,stimuli/bead_y.PNG,stimuli/bead_b.PNG,stimuli/bead_b.PNG,stimuli/bead_g.PNG,stimuli/bead_b.PNG,0,1,left,,,,,,,,,,,,,,,,,,,,,,,,
,,,,2023-10-10_11h10.36.201,Fish_Game,2023.1.3,MacIntel,59.99880002,,,,left,0.5525,,1,0,6,6,6,1,7,stimuli/bead_b.PNG,stimuli/bead_y.PNG,stimuli/bead_b.PNG,stimuli/bead_b.PNG,stimuli/bead_g.PNG,0,1,left,,,,,,,,,,,,,,,,,,,,,,,,
,,,,2023-10-10_11h10.36.201,Fish_Game,2023.1.3,MacIntel,59.99880002,,,,left,0.5291,,0,0,7,7,7,1,8,stimuli/bead_y.PNG,stimuli/bead_b.PNG,stimuli/bead_y.PNG,stimuli/bead_b.PNG,stimuli/bead_b.PNG,1,2,up,,,,,,,,,,,,,,,,,,,,,,,,
,,,,2023-10-10_11h10.36.201,Fish_Game,2023.1.3,MacIntel,59.99880002,,,,up,0.6528,,1,0,8,8,8,1,9,stimuli/bead_y.PNG,stimuli/bead_y.PNG,stimuli/bead_b.PNG,stimuli/bead_y.PNG,stimuli/bead_b.PNG,1,2,up,,,,,,,,,,,,,,,,,,,,,,,,
,,,,2023-10-10_11h10.36.201,Fish_Game,2023.1.3,MacIntel,59.99880002,,,,up,1.2841,,1,0,9,9,9,1,10,stimuli/bead_b.PNG,stimuli/bead_y.PNG,stimuli/bead_y.PNG,stimuli/bead_b.PNG,stimuli/bead_y.PNG,1,2,up,,,,,,,,,,,,,,,,,,,,,,,,
,,,,2023-10-10_11h10.36.201,Fish_Game,2023.1.3,MacIntel,59.99880002,,,,up,1.2496,,1,0,10,10,10,1,11,stimuli/bead_y.PNG,stimuli/bead_b.PNG,stimuli/bead_y.PNG,stimuli/bead_y.PNG,stimuli/bead_b.PNG,1,2,up,,,,,,,,,,,,,,,,,,,,,,,,
,,,,2023-10-10_11h10.36.201,Fish_Game,2023.1.3,MacIntel,59.99880002,,,,up,1.9709,,1,0,11,11,11,1,12,stimuli/bead_y.PNG,stimuli/bead_y.PNG,stimuli/bead_b.PNG,stimuli/bead_y.PNG,stimuli/bead_y.PNG,1,2,up,,,,,,,,,,,,,,,,,,,,,,,,
,,,,2023-10-10_11h10.36.201,Fish_Game,2023.1.3,MacIntel,59.99880002,,,,up,0.6332,,1,0,12,12,12,1,13,stimuli/bead_b.PNG,stimuli/bead_y.PNG,stimuli/bead_y.PNG,stimuli/bead_b.PNG,stimuli/bead_y.PNG,1,2,up,,,,,,,,,,,,,,,,,,,,,,,,
,,,,2023-10-10_11h10.36.201,Fish_Game,2023.1.3,MacIntel,59.99880002,,,,up,0.481,,1,0,13,13,13,1,14,stimuli/bead_y.PNG,stimuli/bead_b.PNG,stimuli/bead_y.PNG,stimuli/bead_y.PNG,stimuli/bead_b.PNG,1,2,up,,,,,,,,,,,,,,,,,,,,,,,,
,,,,2023-10-10_11h10.36.201,Fish_Game,2023.1.3,MacIntel,59.99880002,,,,up,1.3732,,1,0,14,14,14,1,15,stimuli/bead_y.PNG,stimuli/bead_y.PNG,stimuli/bead_b.PNG,stimuli/bead_y.PNG,stimuli/bead_y.PNG,1,2,up,,,,,,,,,,,,,,,,,,,,,,,,
,,,,2023-10-10_11h10.36.201,Fish_Game,2023.1.3,MacIntel,59.99880002,,,,right,1.0179,,1,0,0,0,0,1,1,stimuli/bead_g.PNG,stimuli/blank.jpg,stimuli/blank.jpg,stimuli/blank.jpg,stimuli/blank.jpg,2,3,right,,,,,,,,,,,,,,,,,,,,,,,,
,,,,2023-10-10_11h10.36.201,Fish_Game,2023.1.3,MacIntel,59.99880002,,,,right,1.1895,,1,0,1,1,1,1,2,stimuli/bead_g.PNG,stimuli/bead_g.PNG,stimuli/blank.jpg,stimuli/blank.jpg,stimuli/blank.jpg,2,3,right,,,,,,,,,,,,,,,,,,,,,,,,
,,,,2023-10-10_11h10.36.201,Fish_Game,2023.1.3,MacIntel,59.99880002,,,,right,0.6699,,1,0,2,2,2,1,3,stimuli/bead_b.PNG,stimuli/bead_g.PNG,stimuli/bead_g.PNG,stimuli/blank.jpg,stimuli/blank.jpg,2,3,right,,,,,,,,,,,,,,,,,,,,,,,,
,,,,2023-10-10_11h10.36.201,Fish_Game,2023.1.3,MacIntel,59.99880002,,,,right,3.5722,,1,0,3,3,3,1,4,stimuli/bead_g.PNG,stimuli/bead_g.PNG,stimuli/bead_g.PNG,stimuli/bead_g.PNG,stimuli/blank.jpg,2,3,right,,,,,,,,,,,,,,,,,,,,,,,,
,,,,2023-10-10_11h10.36.201,Fish_Game,2023.1.3,MacIntel,59.99880002,,,,right,0.5027,,1,0,4,4,4,1,5,stimuli/bead_b.PNG,stimuli/bead_b.PNG,stimuli/bead_g.PNG,stimuli/bead_g.PNG,stimuli/bead_g.PNG,2,3,right,,,,,,,,,,,,,,,,,,,,,,,,
,,,,2023-10-10_11h10.36.201,Fish_Game,2023.1.3,MacIntel,59.99880002,,,,right,2.3004,,1,0,5,5,5,1,6,stimuli/bead_g.PNG,stimuli/bead_g.PNG,stimuli/bead_b.PNG,stimuli/bead_g.PNG,stimuli/bead_g.PNG,2,3,right,,,,,,,,,,,,,,,,,,,,,,,,
,,,,2023-10-10_11h10.36.201,Fish_Game,2023.1.3,MacIntel,59.99880002,,,,right,0.3721,,1,0,6,6,6,1,7,stimuli/bead_g.PNG,stimuli/bead_b.PNG,stimuli/bead_g.PNG,stimuli/bead_b.PNG,stimuli/bead_g.PNG,2,3,right,,,,,,,,,,,,,,,,,,,,,,,,
,,,,2023-10-10_11h10.36.201,Fish_Game,2023.1.3,MacIntel,59.99880002,,,,right,2.1547,,1,0,7,7,7,1,8,stimuli/bead_g.PNG,stimuli/bead_g.PNG,stimuli/bead_b.PNG,stimuli/bead_g.PNG,stimuli/bead_b.PNG,2,3,right,,,,,,,,,,,,,,,,,,,,,,,,
,,,,2023-10-10_11h10.36.201,Fish_Game,2023.1.3,MacIntel,59.99880002,,,,right,2.2197,,0,0,8,8,8,1,9,stimuli/bead_y.PNG,stimuli/bead_g.PNG,stimuli/bead_g.PNG,stimuli/bead_b.PNG,stimuli/bead_g.PNG,1,2,up,,,,,,,,,,,,,,,,,,,,,,,,
,,,,2023-10-10_11h10.36.201,Fish_Game,2023.1.3,MacIntel,59.99880002,,,,up,0.643,,1,0,9,9,9,1,10,stimuli/bead_y.PNG,stimuli/bead_g.PNG,stimuli/bead_g.PNG,stimuli/bead_g.PNG,stimuli/bead_b.PNG,1,2,up,,,,,,,,,,,,,,,,,,,,,,,,
,,,,2023-10-10_11h10.36.201,Fish_Game,2023.1.3,MacIntel,59.99880002,,,,up,0.8683,,1,0,10,10,10,1,11,stimuli/bead_y.PNG,stimuli/bead_y.PNG,stimuli/bead_g.PNG,stimuli/bead_g.PNG,stimuli/bead_g.PNG,1,2,up,,,,,,,,,,,,,,,,,,,,,,,,
,,,,2023-10-10_11h10.36.201,Fish_Game,2023.1.3,MacIntel,59.99880002,,,,up,1.5177,,1,0,11,11,11,1,12,stimuli/bead_g.PNG,stimuli/bead_y.PNG,stimuli/bead_y.PNG,stimuli/bead_g.PNG,stimuli/bead_g.PNG,1,2,up,,,,,,,,,,,,,,,,,,,,,,,,
,,,,2023-10-10_11h10.36.201,Fish_Game,2023.1.3,MacIntel,59.99880002,,,,up,1.1186,,1,0,12,12,12,1,13,stimuli/bead_y.PNG,stimuli/bead_y.PNG,stimuli/bead_y.PNG,stimuli/bead_y.PNG,stimuli/bead_g.PNG,1,2,up,,,,,,,,,,,,,,,,,,,,,,,,
,,,,2023-10-10_11h10.36.201,Fish_Game,2023.1.3,MacIntel,59.99880002,,,,up,0.4851,,1,0,13,13,13,1,14,stimuli/bead_y.PNG,stimuli/bead_g.PNG,stimuli/bead_y.PNG,stimuli/bead_y.PNG,stimuli/bead_y.PNG,1,2,up,,,,,,,,,,,,,,,,,,,,,,,,
,,,,2023-10-10_11h10.36.201,Fish_Game,2023.1.3,MacIntel,59.99880002,,,,up,1.2343,,1,0,14,14,14,1,15,stimuli/bead_b.PNG,stimuli/bead_y.PNG,stimuli/bead_g.PNG,stimuli/bead_y.PNG,stimuli/bead_y.PNG,1,2,up,,,,,,,,,,,,,,,,,,,,,,,,
,,,,2023-10-10_11h10.36.201,Fish_Game,2023.1.3,MacIntel,59.99880002,,,,,,,,,,,,,1,,,,,,,,,space,10.0623,,1,1condition/mainTrials1.xlsx,right,0.955,,1,1,235.7806,0,0,0,0,1,stimuli/bead_g.PNG,stimuli/blank.jpg,stimuli/blank.jpg,stimuli/blank.jpg,stimuli/blank.jpg,2,3,right
,,,,2023-10-10_11h10.36.201,Fish_Game,2023.1.3,MacIntel,59.99880002,,,,,,,,,,,,,2,,,,,,,,,,,,,,right,0.5032,,1,1.5,238.3141,0,1,1,1,1,stimuli/bead_y.PNG,stimuli/bead_g.PNG,stimuli/blank.jpg,stimuli/blank.jpg,stimuli/blank.jpg,2,3,right
,,,,2023-10-10_11h10.36.201,Fish_Game,2023.1.3,MacIntel,59.99880002,,,,,,,,,,,,,3,,,,,,,,,,,,,,right,0.4532,,1,1,240.2813,0,2,2,2,1,stimuli/bead_g.PNG,stimuli/bead_y.PNG,stimuli/bead_g.PNG,stimuli/blank.jpg,stimuli/blank.jpg,2,3,right
,,,,2023-10-10_11h10.36.201,Fish_Game,2023.1.3,MacIntel,59.99880002,,,,,,,,,,,,,4,,,,,,,,,,,,,,right,1.7957,,1,1.5,244.115,0,3,3,3,1,stimuli/bead_b.PNG,stimuli/bead_g.PNG,stimuli/bead_y.PNG,stimuli/bead_g.PNG,stimuli/blank.jpg,2,3,right
,,,,2023-10-10_11h10.36.201,Fish_Game,2023.1.3,MacIntel,59.99880002,,,,,,,,,,,,,5,,,,,,,,,,,,,,right,0.834,,1,1,246.4832,0,4,4,4,1,stimuli/bead_g.PNG,stimuli/bead_b.PNG,stimuli/bead_g.PNG,stimuli/bead_y.PNG,stimuli/bead_g.PNG,2,3,right
,,,,2023-10-10_11h10.36.201,Fish_Game,2023.1.3,MacIntel,59.99880002,,,,,,,,,,,,,6,,,,,,,,,,,,,,right,0.7043,,1,0.5,248.2142,0,5,5,5,1,stimuli/bead_g.PNG,stimuli/bead_g.PNG,stimuli/bead_b.PNG,stimuli/bead_g.PNG,stimuli/bead_y.PNG,2,3,right
,,,,2023-10-10_11h10.36.201,Fish_Game,2023.1.3,MacIntel,59.99880002,,,,,,,,,,,,,7,,,,,,,,,,,,,,right,0.4321,,1,1.5,250.665,0,6,6,6,1,stimuli/bead_g.PNG,stimuli/bead_g.PNG,stimuli/bead_g.PNG,stimuli/bead_b.PNG,stimuli/bead_g.PNG,2,3,right
,,,,2023-10-10_11h10.36.201,Fish_Game,2023.1.3,MacIntel,59.99880002,,,,,,,,,,,,,8,,,,,,,,,,,,,,right,0.3824,,1,1.5,253.0811,0,7,7,7,1,stimuli/bead_g.PNG,stimuli/bead_g.PNG,stimuli/bead_g.PNG,stimuli/bead_g.PNG,stimuli/bead_b.PNG,2,3,right
,,,,2023-10-10_11h10.36.201,Fish_Game,2023.1.3,MacIntel,59.99880002,,,,,,,,,,,,,9,,,,,,,,,,,,,,left,1.3042,,0,1,255.9167,0,8,8,8,1,stimuli/bead_b.PNG,stimuli/bead_g.PNG,stimuli/bead_g.PNG,stimuli/bead_g.PNG,stimuli/bead_g.PNG,2,3,right
,,,,2023-10-10_11h10.36.201,Fish_Game,2023.1.3,MacIntel,59.99880002,,,,,,,,,,,,,10,,,,,,,,,,,,,,left,1.1992,,0,0.5,258.1334,0,9,9,9,1,stimuli/bead_g.PNG,stimuli/bead_b.PNG,stimuli/bead_g.PNG,stimuli/bead_g.PNG,stimuli/bead_g.PNG,2,3,right
,,,,2023-10-10_11h10.36.201,Fish_Game,2023.1.3,MacIntel,59.99880002,,,,,,,,,,,,,11,,,,,,,,,,,,,,left,1.2706,,0,0.5,260.4175,0,10,10,10,1,stimuli/bead_g.PNG,stimuli/bead_g.PNG,stimuli/bead_b.PNG,stimuli/bead_g.PNG,stimuli/bead_g.PNG,2,3,right
,,,,2023-10-10_11h10.36.201,Fish_Game,2023.1.3,MacIntel,59.99880002,,,,,,,,,,,,,12,,,,,,,,,,,,,,right,0.5534,,1,1.5,263.0002,0,11,11,11,1,stimuli/bead_g.PNG,stimuli/bead_g.PNG,stimuli/bead_g.PNG,stimuli/bead_b.PNG,stimuli/bead_g.PNG,2,3,right
,,,,2023-10-10_11h10.36.201,Fish_Game,2023.1.3,MacIntel,59.99880002,,,,,,,,,,,,,13,,,,,,,,,,,,,,,,,,1.5,263.0002,0,12,12,12,1,stimuli/bead_b.PNG,stimuli/bead_g.PNG,stimuli/bead_g.PNG,stimuli/bead_g.PNG,stimuli/bead_b.PNG,0,1,left
,,,,2023-10-10_11h10.36.201,Fish_Game,2023.1.3,MacIntel,59.99880002,,,,,,,,,,,,,14,,,,,,,,,,,,,,left,0.8907,,1,0.5,270.1197,0,13,13,13,1,stimuli/bead_b.PNG,stimuli/bead_b.PNG,stimuli/bead_g.PNG,stimuli/bead_g.PNG,stimuli/bead_g.PNG,0,1,left
,,,,2023-10-10_11h10.36.201,Fish_Game,2023.1.3,MacIntel,59.99880002,,,,,,,,,,,,,15,,,,,,,,,,,,,,left,0.642,,1,1,272.2839,0,14,14,14,1,stimuli/bead_b.PNG,stimuli/bead_b.PNG,stimuli/bead_b.PNG,stimuli/bead_g.PNG,stimuli/bead_g.PNG,0,1,left
,,,,2023-10-10_11h10.36.201,Fish_Game,2023.1.3,MacIntel,59.99880002,,,,,,,,,,,,,1,,,,,,,,,,,,2,1condition/mainTrials2.xlsx,up,0.7598,,1,1,279.586,0,0,0,0,1,stimuli/bead_y.PNG,stimuli/blank.jpg,stimuli/blank.jpg,stimuli/blank.jpg,stimuli/blank.jpg,1,2,up
,,,,2023-10-10_11h10.36.201,Fish_Game,2023.1.3,MacIntel,59.99880002,,,,,,,,,,,,,2,,,,,,,,,,,,,,up,2.0747,,1,0.5,282.6853,0,1,1,1,1,stimuli/bead_b.PNG,stimuli/bead_y.PNG,stimuli/blank.jpg,stimuli/blank.jpg,stimuli/blank.jpg,1,2,up
,,,,2023-10-10_11h10.36.201,Fish_Game,2023.1.3,MacIntel,59.99880002,,,,,,,,,,,,,3,,,,,,,,,,,,,,up,0.6897,,1,1,284.9029,0,2,2,2,1,stimuli/bead_y.PNG,stimuli/bead_b.PNG,stimuli/bead_y.PNG,stimuli/blank.jpg,stimuli/blank.jpg,1,2,up
,,,,2023-10-10_11h10.36.201,Fish_Game,2023.1.3,MacIntel,59.99880002,,,,,,,,,,,,,4,,,,,,,,,,,,,,up,0.6903,,1,1.5,287.6224,0,3,3,3,1,stimuli/bead_y.PNG,stimuli/bead_y.PNG,stimuli/bead_b.PNG,stimuli/bead_y.PNG,stimuli/blank.jpg,1,2,up
,,,,2023-10-10_11h10.36.201,Fish_Game,2023.1.3,MacIntel,59.99880002,,,,,,,,,,,,,5,,,,,,,,,,,,,,up,0.7696,,1,1,289.9184,0,4,4,4,1,stimuli/bead_g.PNG,stimuli/bead_y.PNG,stimuli/bead_y.PNG,stimuli/bead_b.PNG,stimuli/bead_y.PNG,1,2,up
,,,,2023-10-10_11h10.36.201,Fish_Game,2023.1.3,MacIntel,59.99880002,,,,,,,,,,,,,6,,,,,,,,,,,,,,up,0.6026,,1,1,292.0368,0,5,5,5,1,stimuli/bead_y.PNG,stimuli/bead_g.PNG,stimuli/bead_y.PNG,stimuli/bead_y.PNG,stimuli/bead_b.PNG,1,2,up
,,,,2023-10-10_11h10.36.201,Fish_Game,2023.1.3,MacIntel,59.99880002,,,,,,,,,,,,,7,,,,,,,,,,,,,,up,0.9301,,0,0.5,294.0012,0,6,6,6,1,stimuli/bead_b.PNG,stimuli/bead_y.PNG,stimuli/bead_g.PNG,stimuli/bead_y.PNG,stimuli/bead_y.PNG,0,1,left
,,,,2023-10-10_11h10.36.201,Fish_Game,2023.1.3,MacIntel,59.99880002,,,,,,,,,,,,,8,,,,,,,,,,,,,,up,0.7333,,0,0.5,295.7699,0,7,7,7,1,stimuli/bead_b.PNG,stimuli/bead_b.PNG,stimuli/bead_y.PNG,stimuli/bead_g.PNG,stimuli/bead_y.PNG,0,1,left
,,,,2023-10-10_11h10.36.201,Fish_Game,2023.1.3,MacIntel,59.99880002,,,,,,,,,,,,,9,,,,,,,,,,,,,,up,0.5813,,0,1.5,298.3863,0,8,8,8,1,stimuli/bead_y.PNG,stimuli/bead_b.PNG,stimuli/bead_b.PNG,stimuli/bead_y.PNG,stimuli/bead_g.PNG,0,1,left
,,,,2023-10-10_11h10.36.201,Fish_Game,2023.1.3,MacIntel,59.99880002,,,,,,,,,,,,,10,,,,,,,,,,,,,,up,0.4219,,0,1.5,300.8383,0,9,9,9,1,stimuli/bead_b.PNG,stimuli/bead_y.PNG,stimuli/bead_b.PNG,stimuli/bead_b.PNG,stimuli/bead_y.PNG,0,1,left
,,,,2023-10-10_11h10.36.201,Fish_Game,2023.1.3,MacIntel,59.99880002,,,,,,,,,,,,,11,,,,,,,,,,,,,,left,0.874,,1,0.5,302.7363,0,10,10,10,1,stimuli/bead_b.PNG,stimuli/bead_b.PNG,stimuli/bead_y.PNG,stimuli/bead_b.PNG,stimuli/bead_b.PNG,0,1,left
,,,,2023-10-10_11h10.36.201,Fish_Game,2023.1.3,MacIntel,59.99880002,,,,,,,,,,,,,12,,,,,,,,,,,,,,left,0.3892,,1,1,304.6355,0,11,11,11,1,stimuli/bead_b.PNG,stimuli/bead_b.PNG,stimuli/bead_b.PNG,stimuli/bead_y.PNG,stimuli/bead_b.PNG,0,1,left
,,,,2023-10-10_11h10.36.201,Fish_Game,2023.1.3,MacIntel,59.99880002,,,,,,,,,,,,,13,,,,,,,,,,,,,,left,0.6042,,1,1.5,307.253,0,12,12,12,1,stimuli/bead_g.PNG,stimuli/bead_b.PNG,stimuli/bead_b.PNG,stimuli/bead_b.PNG,stimuli/bead_y.PNG,0,1,left
,,,,2023-10-10_11h10.36.201,Fish_Game,2023.1.3,MacIntel,59.99880002,,,,,,,,,,,,,14,,,,,,,,,,,,,,left,0.6177,,1,0.5,308.8881,0,13,13,13,1,stimuli/bead_b.PNG,stimuli/bead_g.PNG,stimuli/bead_b.PNG,stimuli/bead_b.PNG,stimuli/bead_b.PNG,0,1,left
,,,,2023-10-10_11h10.36.201,Fish_Game,2023.1.3,MacIntel,59.99880002,,,,,,,,,,,,,15,,,,,,,,,,,,,,left,0.4567,,1,1.5,311.3533,0,14,14,14,1,stimuli/bead_b.PNG,stimuli/bead_b.PNG,stimuli/bead_g.PNG,stimuli/bead_b.PNG,stimuli/bead_b.PNG,0,1,left
,,,,2023-10-10_11h10.36.201,Fish_Game,2023.1.3,MacIntel,59.99880002,,,,,,,,,,,,,1,,,,,,,,,,,,3,1condition/mainTrials3.xlsx,up,1.0216,,1,1,318.92,0,0,0,0,1,stimuli/bead_y.PNG,stimuli/blank.jpg,stimuli/blank.jpg,stimuli/blank.jpg,stimuli/blank.jpg,1,2,up
,,,,2023-10-10_11h10.36.201,Fish_Game,2023.1.3,MacIntel,59.99880002,,,,,,,,,,,,,2,,,,,,,,,,,,,,up,0.8365,,1,1,321.2712,0,1,1,1,1,stimuli/bead_y.PNG,stimuli/bead_y.PNG,stimuli/blank.jpg,stimuli/blank.jpg,stimuli/blank.jpg,1,2,up
,,,,2023-10-10_11h10.36.201,Fish_Game,2023.1.3,MacIntel,59.99880002,,,,,,,,,,,,,3,,,,,,,,,,,,,,up,1.6455,,1,1.5,324.955,0,2,2,2,1,stimuli/bead_b.PNG,stimuli/bead_y.PNG,stimuli/bead_y.PNG,stimuli/blank.jpg,stimuli/blank.jpg,1,2,up
,,,,2023-10-10_11h10.36.201,Fish_Game,2023.1.3,MacIntel,59.99880002,,,,,,,,,,,,,4,,,,,,,,,,,,,,up,0.4126,,1,1.5,327.406,0,3,3,3,1,stimuli/bead_y.PNG,stimuli/bead_b.PNG,stimuli/bead_y.PNG,stimuli/bead_y.PNG,stimuli/blank.jpg,1,2,up
,,,,2023-10-10_11h10.36.201,Fish_Game,2023.1.3,MacIntel,59.99880002,,,,,,,,,,,,,5,,,,,,,,,,,,,,up,1.0824,,1,1,330.0048,0,4,4,4,1,stimuli/bead_y.PNG,stimuli/bead_y.PNG,stimuli/bead_b.PNG,stimuli/bead_y.PNG,stimuli/bead_y.PNG,1,2,up
,,,,2023-10-10_11h10.36.201,Fish_Game,2023.1.3,MacIntel,59.99880002,,,,,,,,,,,,,6,,,,,,,,,,,,,,up,1.7361,,1,0.5,332.7572,0,5,5,5,1,stimuli/bead_y.PNG,stimuli/bead_y.PNG,stimuli/bead_y.PNG,stimuli/bead_b.PNG,stimuli/bead_y.PNG,1,2,up
,,,,2023-10-10_11h10.36.201,Fish_Game,2023.1.3,MacIntel,59.99880002,,,,,,,,,,,,,7,,,,,,,,,,,,,,left,1.0544,,0,0.5,334.8373,0,6,6,6,1,stimuli/bead_b.PNG,stimuli/bead_y.PNG,stimuli/bead_y.PNG,stimuli/bead_y.PNG,stimuli/bead_b.PNG,1,2,up
,,,,2023-10-10_11h10.36.201,Fish_Game,2023.1.3,MacIntel,59.99880002,,,,,,,,,,,,,8,,,,,,,,,,,,,,up,2.1229,,1,0.5,337.9881,0,7,7,7,1,stimuli/bead_y.PNG,stimuli/bead_b.PNG,stimuli/bead_y.PNG,stimuli/bead_y.PNG,stimuli/bead_y.PNG,1,2,up
,,,,2023-10-10_11h10.36.201,Fish_Game,2023.1.3,MacIntel,59.99880002,,,,,,,,,,,,,9,,,,,,,,,,,,,,up,0.4211,,1,1,339.9206,0,8,8,8,1,stimuli/bead_y.PNG,stimuli/bead_y.PNG,stimuli/bead_b.PNG,stimuli/bead_y.PNG,stimuli/bead_y.PNG,1,2,up
,,,,2023-10-10_11h10.36.201,Fish_Game,2023.1.3,MacIntel,59.99880002,,,,,,,,,,,,,10,,,,,,,,,,,,,,up,1.8327,,1,1,343.2725,0,9,9,9,1,stimuli/bead_g.PNG,stimuli/bead_y.PNG,stimuli/bead_y.PNG,stimuli/bead_b.PNG,stimuli/bead_y.PNG,1,2,up
,,,,2023-10-10_11h10.36.201,Fish_Game,2023.1.3,MacIntel,59.99880002,,,,,,,,,,,,,11,,,,,,,,,,,,,,up,0.8321,,1,0.5,345.1236,0,10,10,10,1,stimuli/bead_y.PNG,stimuli/bead_g.PNG,stimuli/bead_y.PNG,stimuli/bead_y.PNG,stimuli/bead_b.PNG,1,2,up
,,,,2023-10-10_11h10.36.201,Fish_Game,2023.1.3,MacIntel,59.99880002,,,,,,,,,,,,,12,,,,,,,,,,,,,,right,2.1395,,0,0.5,348.2719,0,11,11,11,1,stimuli/bead_g.PNG,stimuli/bead_y.PNG,stimuli/bead_g.PNG,stimuli/bead_y.PNG,stimuli/bead_y.PNG,1,2,up
,,,,2023-10-10_11h10.36.201,Fish_Game,2023.1.3,MacIntel,59.99880002,,,,,,,,,,,,,13,,,,,,,,,,,,,,right,1.121,,0,1,350.9216,0,12,12,12,1,stimuli/bead_y.PNG,stimuli/bead_g.PNG,stimuli/bead_y.PNG,stimuli/bead_g.PNG,stimuli/bead_y.PNG,1,2,up
,,,,2023-10-10_11h10.36.201,Fish_Game,2023.1.3,MacIntel,59.99880002,,,,,,,,,,,,,14,,,,,,,,,,,,,,right,1.1734,,0,1,353.6222,0,13,13,13,1,stimuli/bead_y.PNG,stimuli/bead_y.PNG,stimuli/bead_g.PNG,stimuli/bead_y.PNG,stimuli/bead_g.PNG,1,2,up
,,,,2023-10-10_11h10.36.201,Fish_Game,2023.1.3,MacIntel,59.99880002,,,,,,,,,,,,,15,,,,,,,,,,,,,,up,0.5701,,1,1.5,356.2227,0,14,14,14,1,stimuli/bead_y.PNG,stimuli/bead_y.PNG,stimuli/bead_y.PNG,stimuli/bead_g.PNG,stimuli/bead_y.PNG,1,2,up
,,,,2023-10-10_11h10.36.201,Fish_Game,2023.1.3,MacIntel,59.99880002,,,,,,,,,,,,,1,,,,,,,,,,,,4,1condition/mainTrials4.xlsx,right,0.7849,,1,1.5,364.0555,0,0,0,0,1,stimuli/bead_g.PNG,stimuli/blank.jpg,stimuli/blank.jpg,stimuli/blank.jpg,stimuli/blank.jpg,2,3,right
,,,,2023-10-10_11h10.36.201,Fish_Game,2023.1.3,MacIntel,59.99880002,,,,,,,,,,,,,2,,,,,,,,,,,,,,right,1.339,,1,0.5,366.4052,0,1,1,1,1,stimuli/bead_g.PNG,stimuli/bead_g.PNG,stimuli/blank.jpg,stimuli/blank.jpg,stimuli/blank.jpg,2,3,right
,,,,2023-10-10_11h10.36.201,Fish_Game,2023.1.3,MacIntel,59.99880002,,,,,,,,,,,,,3,,,,,,,,,,,,,,right,1.0041,,1,1.5,369.4389,0,2,2,2,1,stimuli/bead_b.PNG,stimuli/bead_g.PNG,stimuli/bead_g.PNG,stimuli/blank.jpg,stimuli/blank.jpg,2,3,right
,,,,2023-10-10_11h10.36.201,Fish_Game,2023.1.3,MacIntel,59.99880002,,,,,,,,,,,,,4,,,,,,,,,,,,,,right,0.5351,,1,0.5,370.9901,0,3,3,3,1,stimuli/bead_g.PNG,stimuli/bead_b.PNG,stimuli/bead_g.PNG,stimuli/bead_g.PNG,stimuli/blank.jpg,2,3,right
,,,,2023-10-10_11h10.36.201,Fish_Game,2023.1.3,MacIntel,59.99880002,,,,,,,,,,,,,5,,,,,,,,,,,,,,right,0.4412,,1,1.5,373.4416,0,4,4,4,1,stimuli/bead_g.PNG,stimuli/bead_g.PNG,stimuli/bead_b.PNG,stimuli/bead_g.PNG,stimuli/bead_g.PNG,2,3,right
,,,,2023-10-10_11h10.36.201,Fish_Game,2023.1.3,MacIntel,59.99880002,,,,,,,,,,,,,6,,,,,,,,,,,,,,right,0.7651,,1,1,375.7245,0,5,5,5,1,stimuli/bead_y.PNG,stimuli/bead_g.PNG,stimuli/bead_g.PNG,stimuli/bead_b.PNG,stimuli/bead_g.PNG,2,3,right
,,,,2023-10-10_11h10.36.201,Fish_Game,2023.1.3,MacIntel,59.99880002,,,,,,,,,,,,,7,,,,,,,,,,,,,,right,0.464,,1,1.5,378.2243,0,6,6,6,1,stimuli/bead_g.PNG,stimuli/bead_y.PNG,stimuli/bead_g.PNG,stimuli/bead_g.PNG,stimuli/bead_b.PNG,2,3,right
,,,,2023-10-10_11h10.36.201,Fish_Game,2023.1.3,MacIntel,59.99880002,,,,,,,,,,,,,8,,,,,,,,,,,,,,right,0.7026,,0,1.5,380.9404,0,7,7,7,1,stimuli/bead_y.PNG,stimuli/bead_g.PNG,stimuli/bead_y.PNG,stimuli/bead_g.PNG,stimuli/bead_g.PNG,1,2,up
,,,,2023-10-10_11h10.36.201,Fish_Game,2023.1.3,MacIntel,59.99880002,,,,,,,,,,,,,9,,,,,,,,,,,,,,up,0.5865,,1,1,383.0593,0,8,8,8,1,stimuli/bead_y.PNG,stimuli/bead_y.PNG,stimuli/bead_g.PNG,stimuli/bead_y.PNG,stimuli/bead_g.PNG,1,2,up
,,,,2023-10-10_11h10.36.201,Fish_Game,2023.1.3,MacIntel,59.99880002,,,,,,,,,,,,,10,,,,,,,,,,,,,,up,1.0053,,1,1.5,386.0747,0,9,9,9,1,stimuli/bead_g.PNG,stimuli/bead_y.PNG,stimuli/bead_y.PNG,stimuli/bead_g.PNG,stimuli/bead_y.PNG,1,2,up
,,,,2023-10-10_11h10.36.201,Fish_Game,2023.1.3,MacIntel,59.99880002,,,,,,,,,,,,,11,,,,,,,,,,,,,,up,0.6199,,1,0.5,387.7241,0,10,10,10,1,stimuli/bead_y.PNG,stimuli/bead_g.PNG,stimuli/bead_y.PNG,stimuli/bead_y.PNG,stimuli/bead_g.PNG,1,2,up
,,,,2023-10-10_11h10.36.201,Fish_Game,2023.1.3,MacIntel,59.99880002,,,,,,,,,,,,,12,,,,,,,,,,,,,,up,0.4235,,1,1,389.6772,0,11,11,11,1,stimuli/bead_y.PNG,stimuli/bead_y.PNG,stimuli/bead_g.PNG,stimuli/bead_y.PNG,stimuli/bead_y.PNG,1,2,up
,,,,2023-10-10_11h10.36.201,Fish_Game,2023.1.3,MacIntel,59.99880002,,,,,,,,,,,,,13,,,,,,,,,,,,,,up,1.4522,,1,0.5,392.1576,0,12,12,12,1,stimuli/bead_b.PNG,stimuli/bead_y.PNG,stimuli/bead_y.PNG,stimuli/bead_g.PNG,stimuli/bead_y.PNG,1,2,up
,,,,2023-10-10_11h10.36.201,Fish_Game,2023.1.3,MacIntel,59.99880002,,,,,,,,,,,,,14,,,,,,,,,,,,,,up,0.3537,,1,1,394.0428,0,13,13,13,1,stimuli/bead_y.PNG,stimuli/bead_b.PNG,stimuli/bead_y.PNG,stimuli/bead_y.PNG,stimuli/bead_g.PNG,1,2,up
,,,,2023-10-10_11h10.36.201,Fish_Game,2023.1.3,MacIntel,59.99880002,,,,,,,,,,,,,15,,,,,,,,,,,,,,up,0.3528,,1,1.5,396.4104,0,14,14,14,1,stimuli/bead_y.PNG,stimuli/bead_y.PNG,stimuli/bead_b.PNG,stimuli/bead_y.PNG,stimuli/bead_y.PNG,1,2,up
,,,,2023-10-10_11h10.36.201,Fish_Game,2023.1.3,MacIntel,59.99880002,,,,,,,,,,,,,1,,,,,,,,,,,,5,1condition/mainTrials5.xlsx,left,0.6513,,1,0.5,403.11,0,0,0,0,1,stimuli/bead_b.PNG,stimuli/blank.jpg,stimuli/blank.jpg,stimuli/blank.jpg,stimuli/blank.jpg,0,1,left
,,,,2023-10-10_11h10.36.201,Fish_Game,2023.1.3,MacIntel,59.99880002,,,,,,,,,,,,,2,,,,,,,,,,,,,,left,0.6879,,1,1.5,405.8091,0,1,1,1,1,stimuli/bead_b.PNG,stimuli/bead_b.PNG,stimuli/blank.jpg,stimuli/blank.jpg,stimuli/blank.jpg,0,1,left
,,,,2023-10-10_11h10.36.201,Fish_Game,2023.1.3,MacIntel,59.99880002,,,,,,,,,,,,,3,,,,,,,,,,,,,,left,0.8412,,1,0.5,407.6748,0,2,2,2,1,stimuli/bead_y.PNG,stimuli/bead_b.PNG,stimuli/bead_b.PNG,stimuli/blank.jpg,stimuli/blank.jpg,0,1,left
,,,,2023-10-10_11h10.36.201,Fish_Game,2023.1.3,MacIntel,59.99880002,,,,,,,,,,,,,4,,,,,,,,,,,,,,left,0.4719,,1,1,409.6752,0,3,3,3,1,stimuli/bead_b.PNG,stimuli/bead_y.PNG,stimuli/bead_b.PNG,stimuli/bead_b.PNG,stimuli/blank.jpg,0,1,left
,,,,2023-10-10_11h10.36.201,Fish_Game,2023.1.3,MacIntel,59.99880002,,,,,,,,,,,,,5,,,,,,,,,,,,,,left,0.4193,,1,1,411.6105,0,4,4,4,1,stimuli/bead_b.PNG,stimuli/bead_b.PNG,stimuli/bead_y.PNG,stimuli/bead_b.PNG,stimuli/bead_b.PNG,0,1,left
,,,,2023-10-10_11h10.36.201,Fish_Game,2023.1.3,MacIntel,59.99880002,,,,,,,,,,,,,6,,,,,,,,,,,,,,left,0.9354,,0,1,414.0772,0,5,5,5,1,stimuli/bead_g.PNG,stimuli/bead_b.PNG,stimuli/bead_b.PNG,stimuli/bead_y.PNG,stimuli/bead_b.PNG,2,3,right
,,,,2023-10-10_11h10.36.201,Fish_Game,2023.1.3,MacIntel,59.99880002,,,,,,,,,,,,,7,,,,,,,,,,,,,,left,0.4032,,0,1,416.0105,0,6,6,6,1,stimuli/bead_g.PNG,stimuli/bead_g.PNG,stimuli/bead_b.PNG,stimuli/bead_b.PNG,stimuli/bead_y.PNG,2,2,right
,,,,2023-10-10_11h10.36.201,Fish_Game,2023.1.3,MacIntel,59.99880002,,,,,,,,,,,,,8,,,,,,,,,,,,,,left,2.1713,,0,1.5,420.2113,0,7,7,7,1,stimuli/bead_b.PNG,stimuli/bead_g.PNG,stimuli/bead_g.PNG,stimuli/bead_b.PNG,stimuli/bead_b.PNG,2,2,right
,,,,2023-10-10_11h10.36.201,Fish_Game,2023.1.3,MacIntel,59.99880002,,,,,,,,,,,,,9,,,,,,,,,,,,,,left,0.7344,,0,1.5,422.9613,0,8,8,8,1,stimuli/bead_g.PNG,stimuli/bead_b.PNG,stimuli/bead_g.PNG,stimuli/bead_g.PNG,stimuli/bead_b.PNG,2,2,right
,,,,2023-10-10_11h10.36.201,Fish_Game,2023.1.3,MacIntel,59.99880002,,,,,,,,,,,,,10,,,,,,,,,,,,,,left,0.4293,,0,1.5,425.4115,0,9,9,9,1,stimuli/bead_b.PNG,stimuli/bead_g.PNG,stimuli/bead_b.PNG,stimuli/bead_g.PNG,stimuli/bead_g.PNG,2,2,right
,,,,2023-10-10_11h10.36.201,Fish_Game,2023.1.3,MacIntel,59.99880002,,,,,,,,,,,,,11,,,,,,,,,,,,,,left,0.8398,,0,1,427.7782,0,10,10,10,1,stimuli/bead_g.PNG,stimuli/bead_b.PNG,stimuli/bead_g.PNG,stimuli/bead_b.PNG,stimuli/bead_g.PNG,2,2,right
,,,,2023-10-10_11h10.36.201,Fish_Game,2023.1.3,MacIntel,59.99880002,,,,,,,,,,,,,12,,,,,,,,,,,,,,right,1.6944,,1,0.5,430.5139,0,11,11,11,1,stimuli/bead_g.PNG,stimuli/bead_g.PNG,stimuli/bead_b.PNG,stimuli/bead_g.PNG,stimuli/bead_b.PNG,2,2,right
,,,,2023-10-10_11h10.36.201,Fish_Game,2023.1.3,MacIntel,59.99880002,,,,,,,,,,,,,13,,,,,,,,,,,,,,right,1.9903,,1,1.5,434.511,0,12,12,12,1,stimuli/bead_g.PNG,stimuli/bead_g.PNG,stimuli/bead_g.PNG,stimuli/bead_b.PNG,stimuli/bead_g.PNG,2,3,right
,,,,2023-10-10_11h10.36.201,Fish_Game,2023.1.3,MacIntel,59.99880002,,,,,,,,,,,,,14,,,,,,,,,,,,,,right,0.8636,,1,1,436.8949,0,13,13,13,1,stimuli/bead_y.PNG,stimuli/bead_g.PNG,stimuli/bead_g.PNG,stimuli/bead_g.PNG,stimuli/bead_b.PNG,2,3,right
,,,,2023-10-10_11h10.36.201,Fish_Game,2023.1.3,MacIntel,59.99880002,,,,,,,,,,,,,15,,,,,,,,,,,,,,right,0.7362,,1,1,439.1477,0,14,14,14,1,stimuli/bead_g.PNG,stimuli/bead_y.PNG,stimuli/bead_g.PNG,stimuli/bead_g.PNG,stimuli/bead_g.PNG,2,3,right
,,,,2023-10-10_11h10.36.201,Fish_Game,2023.1.3,MacIntel,59.99880002,,,,,,,,,,,,,1,,,,,,,,,,,,6,1condition/mainTrials6.xlsx,left,1.8542,,0,0.5,447.0449,0,0,0,0,1,stimuli/bead_b.PNG,stimuli/blank.jpg,stimuli/blank.jpg,stimuli/blank.jpg,stimuli/blank.jpg,1,2,up
,,,,2023-10-10_11h10.36.201,Fish_Game,2023.1.3,MacIntel,59.99880002,,,,,,,,,,,,,2,,,,,,,,,,,,,,left,2.1523,,0,0.5,450.2154,0,1,1,1,1,stimuli/bead_y.PNG,stimuli/bead_b.PNG,stimuli/blank.jpg,stimuli/blank.jpg,stimuli/blank.jpg,1,2,up
,,,,2023-10-10_11h10.36.201,Fish_Game,2023.1.3,MacIntel,59.99880002,,,,,,,,,,,,,3,,,,,,,,,,,,,,up,0.8045,,1,1,452.5493,0,2,2,2,1,stimuli/bead_y.PNG,stimuli/bead_y.PNG,stimuli/bead_b.PNG,stimuli/blank.jpg,stimuli/blank.jpg,1,2,up
,,,,2023-10-10_11h10.36.201,Fish_Game,2023.1.3,MacIntel,59.99880002,,,,,,,,,,,,,4,,,,,,,,,,,,,,up,0.7036,,1,1,454.7799,0,3,3,3,1,stimuli/bead_y.PNG,stimuli/bead_y.PNG,stimuli/bead_y.PNG,stimuli/bead_b.PNG,stimuli/blank.jpg,1,2,up
,,,,2023-10-10_11h10.36.201,Fish_Game,2023.1.3,MacIntel,59.99880002,,,,,,,,,,,,,5,,,,,,,,,,,,,,up,0.5982,,0,1.5,457.3979,0,4,4,4,1,stimuli/bead_g.PNG,stimuli/bead_y.PNG,stimuli/bead_y.PNG,stimuli/bead_y.PNG,stimuli/bead_b.PNG,2,3,right
,,,,2023-10-10_11h10.36.201,Fish_Game,2023.1.3,MacIntel,59.99880002,,,,,,,,,,,,,6,,,,,,,,,,,,,,up,0.7367,,0,1.5,460.164,0,5,5,5,1,stimuli/bead_g.PNG,stimuli/bead_g.PNG,stimuli/bead_y.PNG,stimuli/bead_y.PNG,stimuli/bead_y.PNG,2,3,right
,,,,2023-10-10_11h10.36.201,Fish_Game,2023.1.3,MacIntel,59.99880002,,,,,,,,,,,,,7,,,,,,,,,,,,,,up,1.588,,0,1.5,463.7799,0,6,6,6,1,stimuli/bead_y.PNG,stimuli/bead_g.PNG,stimuli/bead_g.PNG,stimuli/bead_y.PNG,stimuli/bead_y.PNG,2,3,right
,,,,2023-10-10_11h10.36.201,Fish_Game,2023.1.3,MacIntel,59.99880002,,,,,,,,,,,,,8,,,,,,,,,,,,,,up,1.2193,,0,0.5,466.0165,0,7,7,7,1,stimuli/bead_g.PNG,stimuli/bead_y.PNG,stimuli/bead_g.PNG,stimuli/bead_g.PNG,stimuli/bead_y.PNG,2,3,right
,,,,2023-10-10_11h10.36.201,Fish_Game,2023.1.3,MacIntel,59.99880002,,,,,,,,,,,,,9,,,,,,,,,,,,,,right,0.9041,,1,1,468.4482,0,8,8,8,1,stimuli/bead_g.PNG,stimuli/bead_g.PNG,stimuli/bead_y.PNG,stimuli/bead_g.PNG,stimuli/bead_g.PNG,2,3,right
,,,,2023-10-10_11h10.36.201,Fish_Game,2023.1.3,MacIntel,59.99880002,,,,,,,,,,,,,10,,,,,,,,,,,,,,right,0.4586,,1,1,470.4299,0,9,9,9,1,stimuli/bead_g.PNG,stimuli/bead_g.PNG,stimuli/bead_g.PNG,stimuli/bead_y.PNG,stimuli/bead_g.PNG,2,3,right
,,,,2023-10-10_11h10.36.201,Fish_Game,2023.1.3,MacIntel,59.99880002,,,,,,,,,,,,,11,,,,,,,,,,,,,,right,1.055,,0,1,472.9994,0,10,10,10,1,stimuli/bead_y.PNG,stimuli/bead_g.PNG,stimuli/bead_g.PNG,stimuli/bead_g.PNG,stimuli/bead_y.PNG,1,2,up
,,,,2023-10-10_11h10.36.201,Fish_Game,2023.1.3,MacIntel,59.99880002,,,,,,,,,,,,,12,,,,,,,,,,,,,,left,1.5158,,0,1,476.049,0,11,11,11,1,stimuli/bead_b.PNG,stimuli/bead_y.PNG,stimuli/bead_g.PNG,stimuli/bead_g.PNG,stimuli/bead_g.PNG,1,2,up
,,,,2023-10-10_11h10.36.201,Fish_Game,2023.1.3,MacIntel,59.99880002,,,,,,,,,,,,,13,,,,,,,,,,,,,,up,1.0043,,1,1,478.5802,0,12,12,12,1,stimuli/bead_y.PNG,stimuli/bead_b.PNG,stimuli/bead_y.PNG,stimuli/bead_g.PNG,stimuli/bead_g.PNG,1,2,up
,,,,2023-10-10_11h10.36.201,Fish_Game,2023.1.3,MacIntel,59.99880002,,,,,,,,,,,,,14,,,,,,,,,,,,,,up,0.7695,,1,1.5,481.3821,0,13,13,13,1,stimuli/bead_y.PNG,stimuli/bead_y.PNG,stimuli/bead_b.PNG,stimuli/bead_y.PNG,stimuli/bead_g.PNG,1,2,up
,,,,2023-10-10_11h10.36.201,Fish_Game,2023.1.3,MacIntel,59.99880002,,,,,,,,,,,,,15,,,,,,,,,,,,,,up,0.4556,,1,1,483.3486,0,14,14,14,1,stimuli/bead_y.PNG,stimuli/bead_y.PNG,stimuli/bead_y.PNG,stimuli/bead_b.PNG,stimuli/bead_y.PNG,1,2,up
,,,,2023-10-10_11h10.36.201,Fish_Game,2023.1.3,MacIntel,59.99880002,,,,,,,,,,,,,1,,,,,,,,,,,,7,1condition/mainTrials7.xlsx,up,0.9228,,1,0.5,490.3143,0,0,0,0,1,stimuli/bead_y.PNG,stimuli/blank.jpg,stimuli/blank.jpg,stimuli/blank.jpg,stimuli/blank.jpg,1,2,up
,,,,2023-10-10_11h10.36.201,Fish_Game,2023.1.3,MacIntel,59.99880002,,,,,,,,,,,,,2,,,,,,,,,,,,,,up,0.3981,,1,0.5,491.7491,0,1,1,1,1,stimuli/bead_y.PNG,stimuli/bead_y.PNG,stimuli/blank.jpg,stimuli/blank.jpg,stimuli/blank.jpg,1,2,up
,,,,2023-10-10_11h10.36.201,Fish_Game,2023.1.3,MacIntel,59.99880002,,,,,,,,,,,,,3,,,,,,,,,,,,,,up,0.0706,,1,1.5,493.8468,0,2,2,2,1,stimuli/bead_g.PNG,stimuli/bead_y.PNG,stimuli/bead_y.PNG,stimuli/blank.jpg,stimuli/blank.jpg,1,2,up
,,,,2023-10-10_11h10.36.201,Fish_Game,2023.1.3,MacIntel,59.99880002,,,,,,,,,,,,,4,,,,,,,,,,,,,,up,0.4377,,1,1.5,496.2977,0,3,3,3,1,stimuli/bead_y.PNG,stimuli/bead_g.PNG,stimuli/bead_y.PNG,stimuli/bead_y.PNG,stimuli/blank.jpg,1,2,up
,,,,2023-10-10_11h10.36.201,Fish_Game,2023.1.3,MacIntel,59.99880002,,,,,,,,,,,,,5,,,,,,,,,,,,,,up,0.5215,,1,0.5,497.8496,0,4,4,4,1,stimuli/bead_y.PNG,stimuli/bead_y.PNG,stimuli/bead_g.PNG,stimuli/bead_y.PNG,stimuli/bead_y.PNG,1,2,up
,,,,2023-10-10_11h10.36.201,Fish_Game,2023.1.3,MacIntel,59.99880002,,,,,,,,,,,,,6,,,,,,,,,,,,,,up,0.4095,,1,1,499.7834,0,5,5,5,1,stimuli/bead_y.PNG,stimuli/bead_y.PNG,stimuli/bead_y.PNG,stimuli/bead_g.PNG,stimuli/bead_y.PNG,1,2,up
,,,,2023-10-10_11h10.36.201,Fish_Game,2023.1.3,MacIntel,59.99880002,,,,,,,,,,,,,7,,,,,,,,,,,,,,up,0.3483,,1,1.5,502.1657,0,6,6,6,1,stimuli/bead_b.PNG,stimuli/bead_y.PNG,stimuli/bead_y.PNG,stimuli/bead_y.PNG,stimuli/bead_g.PNG,1,2,up
,,,,2023-10-10_11h10.36.201,Fish_Game,2023.1.3,MacIntel,59.99880002,,,,,,,,,,,,,8,,,,,,,,,,,,,,up,0.5063,,1,0.5,503.6983,0,7,7,7,1,stimuli/bead_y.PNG,stimuli/bead_b.PNG,stimuli/bead_y.PNG,stimuli/bead_y.PNG,stimuli/bead_y.PNG,1,2,up
,,,,2023-10-10_11h10.36.201,Fish_Game,2023.1.3,MacIntel,59.99880002,,,,,,,,,,,,,9,,,,,,,,,,,,,,up,0.4061,,0,1.5,506.1168,0,8,8,8,1,stimuli/bead_y.PNG,stimuli/bead_y.PNG,stimuli/bead_b.PNG,stimuli/bead_y.PNG,stimuli/bead_y.PNG,1,2,right
,,,,2023-10-10_11h10.36.201,Fish_Game,2023.1.3,MacIntel,59.99880002,,,,,,,,,,,,,10,,,,,,,,,,,,,,up,0.402,,0,1.5,508.5495,0,9,9,9,1,stimuli/bead_g.PNG,stimuli/bead_y.PNG,stimuli/bead_y.PNG,stimuli/bead_b.PNG,stimuli/bead_y.PNG,2,3,right
,,,,2023-10-10_11h10.36.201,Fish_Game,2023.1.3,MacIntel,59.99880002,,,,,,,,,,,,,11,,,,,,,,,,,,,,right,0.391,,1,1.5,510.9652,0,10,10,10,1,stimuli/bead_g.PNG,stimuli/bead_g.PNG,stimuli/bead_y.PNG,stimuli/bead_y.PNG,stimuli/bead_b.PNG,2,3,right
,,,,2023-10-10_11h10.36.201,Fish_Game,2023.1.3,MacIntel,59.99880002,,,,,,,,,,,,,12,,,,,,,,,,,,,,right,0.3427,,1,1,512.8325,0,11,11,11,1,stimuli/bead_y.PNG,stimuli/bead_g.PNG,stimuli/bead_g.PNG,stimuli/bead_y.PNG,stimuli/bead_y.PNG,2,3,right
,,,,2023-10-10_11h10.36.201,Fish_Game,2023.1.3,MacIntel,59.99880002,,,,,,,,,,,,,13,,,,,,,,,,,,,,right,0.3206,,1,1,514.6846,0,12,12,12,1,stimuli/bead_g.PNG,stimuli/bead_y.PNG,stimuli/bead_g.PNG,stimuli/bead_g.PNG,stimuli/bead_y.PNG,2,3,right
,,,,2023-10-10_11h10.36.201,Fish_Game,2023.1.3,MacIntel,59.99880002,,,,,,,,,,,,,14,,,,,,,,,,,,,,right,0.5069,,1,0.5,516.2155,0,13,13,13,1,stimuli/bead_g.PNG,stimuli/bead_g.PNG,stimuli/bead_y.PNG,stimuli/bead_g.PNG,stimuli/bead_g.PNG,2,3,right
,,,,2023-10-10_11h10.36.201,Fish_Game,2023.1.3,MacIntel,59.99880002,,,,,,,,,,,,,15,,,,,,,,,,,,,,right,0.3087,,1,1,518.0332,0,14,14,14,1,stimuli/bead_g.PNG,stimuli/bead_g.PNG,stimuli/bead_g.PNG,stimuli/bead_y.PNG,stimuli/bead_g.PNG,2,3,right
,,,,2023-10-10_11h10.36.201,Fish_Game,2023.1.3,MacIntel,59.99880002,,,,,,,,,,,,,1,,,,,,,,,,,,8,1condition/mainTrials8.xlsx,up,0.6722,,0,1,525.2505,0,0,0,0,1,stimuli/bead_y.PNG,stimuli/blank.jpg,stimuli/blank.jpg,stimuli/blank.jpg,stimuli/blank.jpg,0,1,left
,,,,2023-10-10_11h10.36.201,Fish_Game,2023.1.3,MacIntel,59.99880002,,,,,,,,,,,,,2,,,,,,,,,,,,,,up,0.2967,,0,1.5,527.5859,0,1,1,1,1,stimuli/bead_b.PNG,stimuli/bead_y.PNG,stimuli/blank.jpg,stimuli/blank.jpg,stimuli/blank.jpg,0,1,left
,,,,2023-10-10_11h10.36.201,Fish_Game,2023.1.3,MacIntel,59.99880002,,,,,,,,,,,,,3,,,,,,,,,,,,,,up,0.9991,,0,1,530.1173,0,2,2,2,1,stimuli/bead_g.PNG,stimuli/bead_b.PNG,stimuli/bead_y.PNG,stimuli/blank.jpg,stimuli/blank.jpg,0,1,left
,,,,2023-10-10_11h10.36.201,Fish_Game,2023.1.3,MacIntel,59.99880002,,,,,,,,,,,,,4,,,,,,,,,,,,,,left,0.736,,1,1.5,532.8693,0,3,3,3,1,stimuli/bead_b.PNG,stimuli/bead_g.PNG,stimuli/bead_b.PNG,stimuli/bead_y.PNG,stimuli/blank.jpg,0,1,left
,,,,2023-10-10_11h10.36.201,Fish_Game,2023.1.3,MacIntel,59.99880002,,,,,,,,,,,,,5,,,,,,,,,,,,,,left,0.5347,,1,0.5,534.4358,0,4,4,4,1,stimuli/bead_b.PNG,stimuli/bead_b.PNG,stimuli/bead_g.PNG,stimuli/bead_b.PNG,stimuli/bead_y.PNG,0,1,left
,,,,2023-10-10_11h10.36.201,Fish_Game,2023.1.3,MacIntel,59.99880002,,,,,,,,,,,,,6,,,,,,,,,,,,,,left,0.359,,1,1.5,536.8175,0,5,5,5,1,stimuli/bead_b.PNG,stimuli/bead_b.PNG,stimuli/bead_b.PNG,stimuli/bead_g.PNG,stimuli/bead_b.PNG,0,1,left
,,,,2023-10-10_11h10.36.201,Fish_Game,2023.1.3,MacIntel,59.99880002,,,,,,,,,,,,,7,,,,,,,,,,,,,,left,0.3205,,1,1.5,539.1682,0,6,6,6,1,stimuli/bead_g.PNG,stimuli/bead_b.PNG,stimuli/bead_b.PNG,stimuli/bead_b.PNG,stimuli/bead_g.PNG,0,1,left
,,,,2023-10-10_11h10.36.201,Fish_Game,2023.1.3,MacIntel,59.99880002,,,,,,,,,,,,,8,,,,,,,,,,,,,,left,0.6534,,1,0.5,540.8541,0,7,7,7,1,stimuli/bead_b.PNG,stimuli/bead_g.PNG,stimuli/bead_b.PNG,stimuli/bead_b.PNG,stimuli/bead_b.PNG,0,1,left
,,,,2023-10-10_11h10.36.201,Fish_Game,2023.1.3,MacIntel,59.99880002,,,,,,,,,,,,,9,,,,,,,,,,,,,,left,0.7056,,1,0.5,542.5677,0,8,8,8,1,stimuli/bead_y.PNG,stimuli/bead_b.PNG,stimuli/bead_g.PNG,stimuli/bead_b.PNG,stimuli/bead_b.PNG,0,1,left
,,,,2023-10-10_11h10.36.201,Fish_Game,2023.1.3,MacIntel,59.99880002,,,,,,,,,,,,,10,,,,,,,,,,,,,,left,0.4162,,1,1.5,545.0011,0,9,9,9,1,stimuli/bead_b.PNG,stimuli/bead_y.PNG,stimuli/bead_b.PNG,stimuli/bead_g.PNG,stimuli/bead_b.PNG,0,1,left
,,,,2023-10-10_11h10.36.201,Fish_Game,2023.1.3,MacIntel,59.99880002,,,,,,,,,,,,,11,,,,,,,,,,,,,,left,0.3894,,1,1.5,547.4019,0,10,10,10,1,stimuli/bead_b.PNG,stimuli/bead_b.PNG,stimuli/bead_y.PNG,stimuli/bead_b.PNG,stimuli/bead_g.PNG,0,1,left
,,,,2023-10-10_11h10.36.201,Fish_Game,2023.1.3,MacIntel,59.99880002,,,,,,,,,,,,,12,,,,,,,,,,,,,,up,1.3872,,1,1,550.315,0,11,11,11,1,stimuli/bead_y.PNG,stimuli/bead_b.PNG,stimuli/bead_b.PNG,stimuli/bead_y.PNG,stimuli/bead_b.PNG,1,2,up
,,,,2023-10-10_11h10.36.201,Fish_Game,2023.1.3,MacIntel,59.99880002,,,,,,,,,,,,,13,,,,,,,,,,,,,,up,0.4182,,1,0.5,551.7699,0,12,12,12,1,stimuli/bead_y.PNG,stimuli/bead_y.PNG,stimuli/bead_b.PNG,stimuli/bead_b.PNG,stimuli/bead_y.PNG,1,2,up
,,,,2023-10-10_11h10.36.201,Fish_Game,2023.1.3,MacIntel,59.99880002,,,,,,,,,,,,,14,,,,,,,,,,,,,,up,0.3077,,1,1.5,554.102,0,13,13,13,1,stimuli/bead_y.PNG,stimuli/bead_y.PNG,stimuli/bead_y.PNG,stimuli/bead_b.PNG,stimuli/bead_b.PNG,1,2,up
,,,,2023-10-10_11h10.36.201,Fish_Game,2023.1.3,MacIntel,59.99880002,,,,,,,,,,,,,15,,,,,,,,,,,,,,up,0.6872,,1,1,556.3207,0,14,14,14,1,stimuli/bead_g.PNG,stimuli/bead_y.PNG,stimuli/bead_y.PNG,stimuli/bead_y.PNG,stimuli/bead_b.PNG,1,2,up
,,,,2023-10-10_11h10.36.201,Fish_Game,2023.1.3,MacIntel,59.99880002,,,,,,,,,,,,,1,,,,,,,,,,,,9,1condition/mainTrials9.xlsx,right,1.1023,,1,1.5,564.4706,0,0,0,0,1,stimuli/bead_g.PNG,stimuli/blank.jpg,stimuli/blank.jpg,stimuli/blank.jpg,stimuli/blank.jpg,2,3,right
,,,,2023-10-10_11h10.36.201,Fish_Game,2023.1.3,MacIntel,59.99880002,,,,,,,,,,,,,2,,,,,,,,,,,,,,right,1.669,,1,0.5,567.1707,0,1,1,1,1,stimuli/bead_g.PNG,stimuli/bead_g.PNG,stimuli/blank.jpg,stimuli/blank.jpg,stimuli/blank.jpg,2,3,right
,,,,2023-10-10_11h10.36.201,Fish_Game,2023.1.3,MacIntel,59.99880002,,,,,,,,,,,,,3,,,,,,,,,,,,,,right,2.0167,,1,0.5,570.2064,0,2,2,2,1,stimuli/bead_b.PNG,stimuli/bead_g.PNG,stimuli/bead_g.PNG,stimuli/blank.jpg,stimuli/blank.jpg,2,3,right
,,,,2023-10-10_11h10.36.201,Fish_Game,2023.1.3,MacIntel,59.99880002,,,,,,,,,,,,,4,,,,,,,,,,,,,,right,0.9159,,1,1,572.6538,0,3,3,3,1,stimuli/bead_g.PNG,stimuli/bead_b.PNG,stimuli/bead_g.PNG,stimuli/bead_g.PNG,stimuli/blank.jpg,2,3,right
,,,,2023-10-10_11h10.36.201,Fish_Game,2023.1.3,MacIntel,59.99880002,,,,,,,,,,,,,5,,,,,,,,,,,,,,right,0.6393,,1,1,574.821,0,4,4,4,1,stimuli/bead_g.PNG,stimuli/bead_g.PNG,stimuli/bead_b.PNG,stimuli/bead_g.PNG,stimuli/bead_g.PNG,2,3,right
,,,,2023-10-10_11h10.36.201,Fish_Game,2023.1.3,MacIntel,59.99880002,,,,,,,,,,,,,6,,,,,,,,,,,,,,right,1.0383,,1,0.5,576.8879,0,5,5,5,1,stimuli/bead_b.PNG,stimuli/bead_g.PNG,stimuli/bead_g.PNG,stimuli/bead_b.PNG,stimuli/bead_g.PNG,2,3,right
,,,,2023-10-10_11h10.36.201,Fish_Game,2023.1.3,MacIntel,59.99880002,,,,,,,,,,,,,7,,,,,,,,,,,,,,right,0.9693,,1,1,579.3706,0,6,6,6,1,stimuli/bead_g.PNG,stimuli/bead_b.PNG,stimuli/bead_g.PNG,stimuli/bead_g.PNG,stimuli/bead_b.PNG,2,3,right
,,,,2023-10-10_11h10.36.201,Fish_Game,2023.1.3,MacIntel,59.99880002,,,,,,,,,,,,,8,,,,,,,,,,,,,,right,0.6356,,1,1,581.5378,0,7,7,7,1,stimuli/bead_g.PNG,stimuli/bead_g.PNG,stimuli/bead_b.PNG,stimuli/bead_g.PNG,stimuli/bead_g.PNG,2,3,right
,,,,2023-10-10_11h10.36.201,Fish_Game,2023.1.3,MacIntel,59.99880002,,,,,,,,,,,,,9,,,,,,,,,,,,,,right,0.7505,,0,1.5,584.3071,0,8,8,8,1,stimuli/bead_b.PNG,stimuli/bead_g.PNG,stimuli/bead_g.PNG,stimuli/bead_b.PNG,stimuli/bead_g.PNG,0,1,left
,,,,2023-10-10_11h10.36.201,Fish_Game,2023.1.3,MacIntel,59.99880002,,,,,,,,,,,,,10,,,,,,,,,,,,,,right,1.1405,,0,1,586.9724,0,9,9,9,1,stimuli/bead_y.PNG,stimuli/bead_b.PNG,stimuli/bead_g.PNG,stimuli/bead_g.PNG,stimuli/bead_b.PNG,0,1,left
,,,,2023-10-10_11h10.36.201,Fish_Game,2023.1.3,MacIntel,59.99880002,,,,,,,,,,,,,11,,,,,,,,,,,,,,right,1.4823,,0,1,589.9904,0,10,10,10,1,stimuli/bead_b.PNG,stimuli/bead_y.PNG,stimuli/bead_b.PNG,stimuli/bead_g.PNG,stimuli/bead_g.PNG,0,1,left
,,,,2023-10-10_11h10.36.201,Fish_Game,2023.1.3,MacIntel,59.99880002,,,,,,,,,,,,,12,,,,,,,,,,,,,,left,0.4021,,1,1.5,592.4048,0,11,11,11,1,stimuli/bead_b.PNG,stimuli/bead_b.PNG,stimuli/bead_y.PNG,stimuli/bead_b.PNG,stimuli/bead_g.PNG,0,1,left
,,,,2023-10-10_11h10.36.201,Fish_Game,2023.1.3,MacIntel,59.99880002,,,,,,,,,,,,,13,,,,,,,,,,,,,,left,1.0349,,1,1,594.9745,0,12,12,12,1,stimuli/bead_b.PNG,stimuli/bead_b.PNG,stimuli/bead_b.PNG,stimuli/bead_y.PNG,stimuli/bead_b.PNG,0,1,left
,,,,2023-10-10_11h10.36.201,Fish_Game,2023.1.3,MacIntel,59.99880002,,,,,,,,,,,,,14,,,,,,,,,,,,,,left,1.0897,,1,0.5,597.0726,0,13,13,13,1,stimuli/bead_g.PNG,stimuli/bead_b.PNG,stimuli/bead_b.PNG,stimuli/bead_b.PNG,stimuli/bead_y.PNG,0,1,left
,,,,2023-10-10_11h10.36.201,Fish_Game,2023.1.3,MacIntel,59.99880002,,,,,,,,,,,,,15,,,,,,,,,,,,,,left,0.5509,,1,1.5,599.6547,0,14,14,14,1,stimuli/bead_b.PNG,stimuli/bead_g.PNG,stimuli/bead_b.PNG,stimuli/bead_b.PNG,stimuli/bead_b.PNG,0,1,left
,,,,2023-10-10_11h10.36.201,Fish_Game,2023.1.3,MacIntel,59.99880002,,,,,,,,,,,,,1,,,,,,,,,,,,10,1condition/mainTrials10.xlsx,up,0.499,,0,1,606.7227,0,0,0,0,1,stimuli/bead_y.PNG,stimuli/blank.jpg,stimuli/blank.jpg,stimuli/blank.jpg,stimuli/blank.jpg,0,1,left
,,,,2023-10-10_11h10.36.201,Fish_Game,2023.1.3,MacIntel,59.99880002,,,,,,,,,,,,,2,,,,,,,,,,,,,,up,1.1223,,0,0.5,608.8728,0,1,1,1,1,stimuli/bead_b.PNG,stimuli/bead_y.PNG,stimuli/blank.jpg,stimuli/blank.jpg,stimuli/blank.jpg,0,1,left
,,,,2023-10-10_11h10.36.201,Fish_Game,2023.1.3,MacIntel,59.99880002,,,,,,,,,,,,,3,,,,,,,,,,,,,,up,0.4924,,0,0.5,610.3904,0,2,2,2,1,stimuli/bead_b.PNG,stimuli/bead_b.PNG,stimuli/bead_y.PNG,stimuli/blank.jpg,stimuli/blank.jpg,0,1,left
,,,,2023-10-10_11h10.36.201,Fish_Game,2023.1.3,MacIntel,59.99880002,,,,,,,,,,,,,4,,,,,,,,,,,,,,left,0.4151,,1,1,612.3233,0,3,3,3,1,stimuli/bead_b.PNG,stimuli/bead_b.PNG,stimuli/bead_b.PNG,stimuli/bead_y.PNG,stimuli/blank.jpg,0,1,left
,,,,2023-10-10_11h10.36.201,Fish_Game,2023.1.3,MacIntel,59.99880002,,,,,,,,,,,,,5,,,,,,,,,,,,,,left,0.4213,,1,1.5,614.7741,0,4,4,4,1,stimuli/bead_b.PNG,stimuli/bead_b.PNG,stimuli/bead_b.PNG,stimuli/bead_b.PNG,stimuli/bead_y.PNG,0,1,left
,,,,2023-10-10_11h10.36.201,Fish_Game,2023.1.3,MacIntel,59.99880002,,,,,,,,,,,,,6,,,,,,,,,,,,,,left,0.3453,,1,1.5,617.1455,0,5,5,5,1,stimuli/bead_g.PNG,stimuli/bead_b.PNG,stimuli/bead_b.PNG,stimuli/bead_b.PNG,stimuli/bead_b.PNG,0,1,left
,,,,2023-10-10_11h10.36.201,Fish_Game,2023.1.3,MacIntel,59.99880002,,,,,,,,,,,,,7,,,,,,,,,,,,,,left,0.4707,,1,0.5,618.6392,0,6,6,6,1,stimuli/bead_b.PNG,stimuli/bead_g.PNG,stimuli/bead_b.PNG,stimuli/bead_b.PNG,stimuli/bead_b.PNG,0,1,left
,,,,2023-10-10_11h10.36.201,Fish_Game,2023.1.3,MacIntel,59.99880002,,,,,,,,,,,,,8,,,,,,,,,,,,,,left,0.5388,,1,1,620.7074,0,7,7,7,1,stimuli/bead_b.PNG,stimuli/bead_b.PNG,stimuli/bead_g.PNG,stimuli/bead_b.PNG,stimuli/bead_b.PNG,0,1,left
,,,,2023-10-10_11h10.36.201,Fish_Game,2023.1.3,MacIntel,59.99880002,,,,,,,,,,,,,9,,,,,,,,,,,,,,left,0.3504,,1,1.5,623.0897,0,8,8,8,1,stimuli/bead_y.PNG,stimuli/bead_b.PNG,stimuli/bead_b.PNG,stimuli/bead_g.PNG,stimuli/bead_b.PNG,0,1,left
,,,,2023-10-10_11h10.36.201,Fish_Game,2023.1.3,MacIntel,59.99880002,,,,,,,,,,,,,10,,,,,,,,,,,,,,left,0.5172,,1,1,625.1392,0,9,9,9,1,stimuli/bead_b.PNG,stimuli/bead_y.PNG,stimuli/bead_b.PNG,stimuli/bead_b.PNG,stimuli/bead_g.PNG,0,1,left
,,,,2023-10-10_11h10.36.201,Fish_Game,2023.1.3,MacIntel,59.99880002,,,,,,,,,,,,,11,,,,,,,,,,,,,,left,0.7659,,0,1,627.4255,0,10,10,10,1,stimuli/bead_g.PNG,stimuli/bead_b.PNG,stimuli/bead_y.PNG,stimuli/bead_b.PNG,stimuli/bead_b.PNG,2,3,right
,,,,2023-10-10_11h10.36.201,Fish_Game,2023.1.3,MacIntel,59.99880002,,,,,,,,,,,,,12,,,,,,,,,,,,,,left,0.9969,,0,0.5,629.458,0,11,11,11,1,stimuli/bead_b.PNG,stimuli/bead_g.PNG,stimuli/bead_b.PNG,stimuli/bead_y.PNG,stimuli/bead_b.PNG,2,3,right
,,,,2023-10-10_11h10.36.201,Fish_Game,2023.1.3,MacIntel,59.99880002,,,,,,,,,,,,,13,,,,,,,,,,,,,,left,0.6352,,0,1.5,632.1268,0,12,12,12,1,stimuli/bead_g.PNG,stimuli/bead_b.PNG,stimuli/bead_g.PNG,stimuli/bead_b.PNG,stimuli/bead_y.PNG,2,3,right
,,,,2023-10-10_11h10.36.201,Fish_Game,2023.1.3,MacIntel,59.99880002,,,,,,,,,,,,,14,,,,,,,,,,,,,,left,0.6725,,0,0.5,633.8068,0,13,13,13,1,stimuli/bead_g.PNG,stimuli/bead_g.PNG,stimuli/bead_b.PNG,stimuli/bead_g.PNG,stimuli/bead_b.PNG,2,3,right
,,,,2023-10-10_11h10.36.201,Fish_Game,2023.1.3,MacIntel,59.99880002,,,,,,,,,,,,,15,,,,,,,,,,,,,,right,0.3005,,1,1,635.6271,0,14,14,14,1,stimuli/bead_g.PNG,stimuli/bead_g.PNG,stimuli/bead_g.PNG,stimuli/bead_b.PNG,stimuli/bead_g.PNG,2,3,right
