participant,date,expName,psychopyVersion,OS,frameRate,ins1_key.keys,ins1_key.rt,ins1_key.duration,key_resp_2.keys,key_resp_2.rt,key_resp_2.duration,fish_key_2.corr,prac_trials.thisRepN,prac_trials.thisTrialN,prac_trials.thisN,prac_trials.thisIndex,prac_trials.ran,trial,fish1_p,fish2_p,fish3_p,fish4_p,fish5_p,pond_p,pond_p2,pond_p3,ExpStart_key.keys,ExpStart_key.rt,ExpStart_key.duration,block number,block assignment,fish_key_button.keys,fish_key_button.rt,fish_key_button.duration,fish_key.corr,fish_interval,key_resp_time,trials.thisRepN,trials.thisTrialN,trials.thisN,trials.thisIndex,trials.ran,fish1,fish2,fish3,fish4,fish5,pond,pond2,pond3
,2023-10-02_19h31.18.207,Fish_Game,2023.1.3,MacIntel,60.06006006,,,,,,,,,,,,,,,,,,,,,,,,,,,,,,,,,,,,,,,,,,,,,
,2023-10-02_19h31.18.207,Fish_Game,2023.1.3,MacIntel,60.06006006,space,2.482,,,,,,,,,,,,,,,,,,,,,,,,,,,,,,,,,,,,,,,,,,,
,2023-10-02_19h31.18.207,Fish_Game,2023.1.3,MacIntel,60.06006006,,,,,,,,,,,,,,,,,,,,,,,,,,,,,,,,,,,,,,,,,,,,,
,2023-10-02_19h31.18.207,Fish_Game,2023.1.3,MacIntel,60.06006006,,,,,,,,,,,,,,,,,,,,,,,,,,,,,,,,,,,,,,,,,,,,,
,2023-10-02_19h31.18.207,Fish_Game,2023.1.3,MacIntel,60.06006006,,,,up,0.8322,,0,0,0,0,0,1,1,stimuli/bead_b.PNG,stimuli/blank.jpg,stimuli/blank.jpg,stimuli/blank.jpg,stimuli/blank.jpg,0,1,left,,,,,,,,,,,,,,,,,,,,,,,,
,2023-10-02_19h31.18.207,Fish_Game,2023.1.3,MacIntel,60.06006006,,,,left,0.4234,,1,0,1,1,1,1,2,stimuli/bead_b.PNG,stimuli/bead_b.PNG,stimuli/blank.jpg,stimuli/blank.jpg,stimuli/blank.jpg,0,1,left,,,,,,,,,,,,,,,,,,,,,,,,
,2023-10-02_19h31.18.207,Fish_Game,2023.1.3,MacIntel,60.06006006,,,,left,0.7022,,1,0,2,2,2,1,3,stimuli/bead_g.PNG,stimuli/bead_b.PNG,stimuli/bead_b.PNG,stimuli/blank.jpg,stimuli/blank.jpg,0,1,left,,,,,,,,,,,,,,,,,,,,,,,,
,2023-10-02_19h31.18.207,Fish_Game,2023.1.3,MacIntel,60.06006006,,,,left,0.3162,,1,0,3,3,3,1,4,stimuli/bead_b.PNG,stimuli/bead_g.PNG,stimuli/bead_b.PNG,stimuli/bead_b.PNG,stimuli/blank.jpg,0,1,left,,,,,,,,,,,,,,,,,,,,,,,,
,2023-10-02_19h31.18.207,Fish_Game,2023.1.3,MacIntel,60.06006006,,,,left,1.1291,,1,0,4,4,4,1,5,stimuli/bead_b.PNG,stimuli/bead_b.PNG,stimuli/bead_g.PNG,stimuli/bead_b.PNG,stimuli/bead_b.PNG,0,1,left,,,,,,,,,,,,,,,,,,,,,,,,
,2023-10-02_19h31.18.207,Fish_Game,2023.1.3,MacIntel,60.06006006,,,,left,0.2677,,1,0,5,5,5,1,6,stimuli/bead_y.PNG,stimuli/bead_b.PNG,stimuli/bead_b.PNG,stimuli/bead_g.PNG,stimuli/bead_b.PNG,0,1,left,,,,,,,,,,,,,,,,,,,,,,,,
,2023-10-02_19h31.18.207,Fish_Game,2023.1.3,MacIntel,60.06006006,,,,left,0.7479,,1,0,6,6,6,1,7,stimuli/bead_b.PNG,stimuli/bead_y.PNG,stimuli/bead_b.PNG,stimuli/bead_b.PNG,stimuli/bead_g.PNG,0,1,left,,,,,,,,,,,,,,,,,,,,,,,,
,2023-10-02_19h31.18.207,Fish_Game,2023.1.3,MacIntel,60.06006006,,,,left,0.5183,,0,0,7,7,7,1,8,stimuli/bead_y.PNG,stimuli/bead_b.PNG,stimuli/bead_y.PNG,stimuli/bead_b.PNG,stimuli/bead_b.PNG,1,2,up,,,,,,,,,,,,,,,,,,,,,,,,
,2023-10-02_19h31.18.207,Fish_Game,2023.1.3,MacIntel,60.06006006,,,,up,0.0168,,1,0,8,8,8,1,9,stimuli/bead_y.PNG,stimuli/bead_y.PNG,stimuli/bead_b.PNG,stimuli/bead_y.PNG,stimuli/bead_b.PNG,1,2,up,,,,,,,,,,,,,,,,,,,,,,,,
,2023-10-02_19h31.18.207,Fish_Game,2023.1.3,MacIntel,60.06006006,,,,,,,,0,9,9,9,1,10,stimuli/bead_b.PNG,stimuli/bead_y.PNG,stimuli/bead_y.PNG,stimuli/bead_b.PNG,stimuli/bead_y.PNG,1,2,up,,,,,,,,,,,,,,,,,,,,,,,,
,2023-10-02_19h31.18.207,Fish_Game,2023.1.3,MacIntel,60.06006006,,,,up,0.0005,,1,0,10,10,10,1,11,stimuli/bead_y.PNG,stimuli/bead_b.PNG,stimuli/bead_y.PNG,stimuli/bead_y.PNG,stimuli/bead_b.PNG,1,2,up,,,,,,,,,,,,,,,,,,,,,,,,
,2023-10-02_19h31.18.207,Fish_Game,2023.1.3,MacIntel,60.06006006,,,,up,0.6563,,1,0,11,11,11,1,12,stimuli/bead_y.PNG,stimuli/bead_y.PNG,stimuli/bead_b.PNG,stimuli/bead_y.PNG,stimuli/bead_y.PNG,1,2,up,,,,,,,,,,,,,,,,,,,,,,,,
,2023-10-02_19h31.18.207,Fish_Game,2023.1.3,MacIntel,60.06006006,,,,up,0.8145,,1,0,12,12,12,1,13,stimuli/bead_b.PNG,stimuli/bead_y.PNG,stimuli/bead_y.PNG,stimuli/bead_b.PNG,stimuli/bead_y.PNG,1,2,up,,,,,,,,,,,,,,,,,,,,,,,,
,2023-10-02_19h31.18.207,Fish_Game,2023.1.3,MacIntel,60.06006006,,,,up,0.1673,,1,0,13,13,13,1,14,stimuli/bead_y.PNG,stimuli/bead_b.PNG,stimuli/bead_y.PNG,stimuli/bead_y.PNG,stimuli/bead_b.PNG,1,2,up,,,,,,,,,,,,,,,,,,,,,,,,
,2023-10-02_19h31.18.207,Fish_Game,2023.1.3,MacIntel,60.06006006,,,,up,0.6853,,1,0,14,14,14,1,15,stimuli/bead_y.PNG,stimuli/bead_y.PNG,stimuli/bead_b.PNG,stimuli/bead_y.PNG,stimuli/bead_y.PNG,1,2,up,,,,,,,,,,,,,,,,,,,,,,,,
,2023-10-02_19h31.18.207,Fish_Game,2023.1.3,MacIntel,60.06006006,,,,right,0.8283,,1,0,0,0,0,1,1,stimuli/bead_g.PNG,stimuli/blank.jpg,stimuli/blank.jpg,stimuli/blank.jpg,stimuli/blank.jpg,2,3,right,,,,,,,,,,,,,,,,,,,,,,,,
,2023-10-02_19h31.18.207,Fish_Game,2023.1.3,MacIntel,60.06006006,,,,right,0.7835,,1,0,1,1,1,1,2,stimuli/bead_g.PNG,stimuli/bead_g.PNG,stimuli/blank.jpg,stimuli/blank.jpg,stimuli/blank.jpg,2,3,right,,,,,,,,,,,,,,,,,,,,,,,,
,2023-10-02_19h31.18.207,Fish_Game,2023.1.3,MacIntel,60.06006006,,,,left,1.9366,,0,0,2,2,2,1,3,stimuli/bead_b.PNG,stimuli/bead_g.PNG,stimuli/bead_g.PNG,stimuli/blank.jpg,stimuli/blank.jpg,2,3,right,,,,,,,,,,,,,,,,,,,,,,,,
,2023-10-02_19h31.18.207,Fish_Game,2023.1.3,MacIntel,60.06006006,,,,right,0.4644,,1,0,3,3,3,1,4,stimuli/bead_g.PNG,stimuli/bead_g.PNG,stimuli/bead_g.PNG,stimuli/bead_g.PNG,stimuli/blank.jpg,2,3,right,,,,,,,,,,,,,,,,,,,,,,,,
,2023-10-02_19h31.18.207,Fish_Game,2023.1.3,MacIntel,60.06006006,,,,left,0.7932,,0,0,4,4,4,1,5,stimuli/bead_b.PNG,stimuli/bead_b.PNG,stimuli/bead_g.PNG,stimuli/bead_g.PNG,stimuli/bead_g.PNG,2,3,right,,,,,,,,,,,,,,,,,,,,,,,,
,2023-10-02_19h31.18.207,Fish_Game,2023.1.3,MacIntel,60.06006006,,,,left,0.1999,,0,0,5,5,5,1,6,stimuli/bead_g.PNG,stimuli/bead_g.PNG,stimuli/bead_b.PNG,stimuli/bead_g.PNG,stimuli/bead_g.PNG,2,3,right,,,,,,,,,,,,,,,,,,,,,,,,
,2023-10-02_19h31.18.207,Fish_Game,2023.1.3,MacIntel,60.06006006,,,,right,1.0933,,1,0,6,6,6,1,7,stimuli/bead_g.PNG,stimuli/bead_b.PNG,stimuli/bead_g.PNG,stimuli/bead_b.PNG,stimuli/bead_g.PNG,2,3,right,,,,,,,,,,,,,,,,,,,,,,,,
,2023-10-02_19h31.18.207,Fish_Game,2023.1.3,MacIntel,60.06006006,,,,right,0.2732,,1,0,7,7,7,1,8,stimuli/bead_g.PNG,stimuli/bead_g.PNG,stimuli/bead_b.PNG,stimuli/bead_g.PNG,stimuli/bead_b.PNG,2,3,right,,,,,,,,,,,,,,,,,,,,,,,,
,2023-10-02_19h31.18.207,Fish_Game,2023.1.3,MacIntel,60.06006006,,,,right,1.8797,,0,0,8,8,8,1,9,stimuli/bead_y.PNG,stimuli/bead_g.PNG,stimuli/bead_g.PNG,stimuli/bead_b.PNG,stimuli/bead_g.PNG,1,2,up,,,,,,,,,,,,,,,,,,,,,,,,
,2023-10-02_19h31.18.207,Fish_Game,2023.1.3,MacIntel,60.06006006,,,,up,1.2527,,1,0,9,9,9,1,10,stimuli/bead_y.PNG,stimuli/bead_g.PNG,stimuli/bead_g.PNG,stimuli/bead_g.PNG,stimuli/bead_b.PNG,1,2,up,,,,,,,,,,,,,,,,,,,,,,,,
,2023-10-02_19h31.18.207,Fish_Game,2023.1.3,MacIntel,60.06006006,,,,up,0.0503,,1,0,10,10,10,1,11,stimuli/bead_y.PNG,stimuli/bead_y.PNG,stimuli/bead_g.PNG,stimuli/bead_g.PNG,stimuli/bead_g.PNG,1,2,up,,,,,,,,,,,,,,,,,,,,,,,,
,2023-10-02_19h31.18.207,Fish_Game,2023.1.3,MacIntel,60.06006006,,,,up,0.8689,,1,0,11,11,11,1,12,stimuli/bead_g.PNG,stimuli/bead_y.PNG,stimuli/bead_y.PNG,stimuli/bead_g.PNG,stimuli/bead_g.PNG,1,2,up,,,,,,,,,,,,,,,,,,,,,,,,
,2023-10-02_19h31.18.207,Fish_Game,2023.1.3,MacIntel,60.06006006,,,,up,0.6961,,1,0,12,12,12,1,13,stimuli/bead_y.PNG,stimuli/bead_y.PNG,stimuli/bead_y.PNG,stimuli/bead_y.PNG,stimuli/bead_g.PNG,1,2,up,,,,,,,,,,,,,,,,,,,,,,,,
,2023-10-02_19h31.18.207,Fish_Game,2023.1.3,MacIntel,60.06006006,,,,up,0.8906,,1,0,13,13,13,1,14,stimuli/bead_y.PNG,stimuli/bead_g.PNG,stimuli/bead_y.PNG,stimuli/bead_y.PNG,stimuli/bead_y.PNG,1,2,up,,,,,,,,,,,,,,,,,,,,,,,,
,2023-10-02_19h31.18.207,Fish_Game,2023.1.3,MacIntel,60.06006006,,,,up,0.9594,,1,0,14,14,14,1,15,stimuli/bead_b.PNG,stimuli/bead_y.PNG,stimuli/bead_g.PNG,stimuli/bead_y.PNG,stimuli/bead_y.PNG,1,2,up,,,,,,,,,,,,,,,,,,,,,,,,
,2023-10-02_19h31.18.207,Fish_Game,2023.1.3,MacIntel,60.06006006,,,,,,,,,,,,,1,,,,,,,,,space,10.4599,,1,1condition/mainTrials10.xlsx,up,0.7276,,0,1.5,214.5775,0,0,0,0,1,stimuli/bead_y.PNG,stimuli/blank.jpg,stimuli/blank.jpg,stimuli/blank.jpg,stimuli/blank.jpg,0,1,left
,2023-10-02_19h31.18.207,Fish_Game,2023.1.3,MacIntel,60.06006006,,,,,,,,,,,,,2,,,,,,,,,,,,,,up,0.8231,,0,0.5,216.4306,0,1,1,1,1,stimuli/bead_b.PNG,stimuli/bead_y.PNG,stimuli/blank.jpg,stimuli/blank.jpg,stimuli/blank.jpg,0,1,left
,2023-10-02_19h31.18.207,Fish_Game,2023.1.3,MacIntel,60.06006006,,,,,,,,,,,,,3,,,,,,,,,,,,,,left,0.5697,,1,1,218.5279,0,2,2,2,1,stimuli/bead_b.PNG,stimuli/bead_b.PNG,stimuli/bead_y.PNG,stimuli/blank.jpg,stimuli/blank.jpg,0,1,left
,2023-10-02_19h31.18.207,Fish_Game,2023.1.3,MacIntel,60.06006006,,,,,,,,,,,,,4,,,,,,,,,,,,,,left,0.5311,,1,1.5,221.093,0,3,3,3,1,stimuli/bead_b.PNG,stimuli/bead_b.PNG,stimuli/bead_b.PNG,stimuli/bead_y.PNG,stimuli/blank.jpg,0,1,left
,2023-10-02_19h31.18.207,Fish_Game,2023.1.3,MacIntel,60.06006006,,,,,,,,,,,,,5,,,,,,,,,,,,,,left,0.3614,,1,1.5,223.4728,0,4,4,4,1,stimuli/bead_b.PNG,stimuli/bead_b.PNG,stimuli/bead_b.PNG,stimuli/bead_b.PNG,stimuli/bead_y.PNG,0,1,left
,2023-10-02_19h31.18.207,Fish_Game,2023.1.3,MacIntel,60.06006006,,,,,,,,,,,,,6,,,,,,,,,,,,,,left,0.6495,,1,0.5,225.1545,0,5,5,5,1,stimuli/bead_g.PNG,stimuli/bead_b.PNG,stimuli/bead_b.PNG,stimuli/bead_b.PNG,stimuli/bead_b.PNG,0,1,left
,2023-10-02_19h31.18.207,Fish_Game,2023.1.3,MacIntel,60.06006006,,,,,,,,,,,,,7,,,,,,,,,,,,,,left,0.4989,,1,1.5,227.6746,0,6,6,6,1,stimuli/bead_b.PNG,stimuli/bead_g.PNG,stimuli/bead_b.PNG,stimuli/bead_b.PNG,stimuli/bead_b.PNG,0,1,left
,2023-10-02_19h31.18.207,Fish_Game,2023.1.3,MacIntel,60.06006006,,,,,,,,,,,,,8,,,,,,,,,,,,,,left,1.0814,,1,1,230.287,0,7,7,7,1,stimuli/bead_b.PNG,stimuli/bead_b.PNG,stimuli/bead_g.PNG,stimuli/bead_b.PNG,stimuli/bead_b.PNG,0,1,left
,2023-10-02_19h31.18.207,Fish_Game,2023.1.3,MacIntel,60.06006006,,,,,,,,,,,,,9,,,,,,,,,,,,,,left,0.6015,,1,1,232.4189,0,8,8,8,1,stimuli/bead_y.PNG,stimuli/bead_b.PNG,stimuli/bead_b.PNG,stimuli/bead_g.PNG,stimuli/bead_b.PNG,0,1,left
,2023-10-02_19h31.18.207,Fish_Game,2023.1.3,MacIntel,60.06006006,,,,,,,,,,,,,10,,,,,,,,,,,,,,left,0.4097,,1,0.5,233.8496,0,9,9,9,1,stimuli/bead_b.PNG,stimuli/bead_y.PNG,stimuli/bead_b.PNG,stimuli/bead_b.PNG,stimuli/bead_g.PNG,0,1,left
,2023-10-02_19h31.18.207,Fish_Game,2023.1.3,MacIntel,60.06006006,,,,,,,,,,,,,11,,,,,,,,,,,,,,left,0.1196,,0,1,235.4993,0,10,10,10,1,stimuli/bead_g.PNG,stimuli/bead_b.PNG,stimuli/bead_y.PNG,stimuli/bead_b.PNG,stimuli/bead_b.PNG,2,3,right
,2023-10-02_19h31.18.207,Fish_Game,2023.1.3,MacIntel,60.06006006,,,,,,,,,,,,,12,,,,,,,,,,,,,,left,1.717,,0,0.5,238.2363,0,11,11,11,1,stimuli/bead_b.PNG,stimuli/bead_g.PNG,stimuli/bead_b.PNG,stimuli/bead_y.PNG,stimuli/bead_b.PNG,2,3,right
,2023-10-02_19h31.18.207,Fish_Game,2023.1.3,MacIntel,60.06006006,,,,,,,,,,,,,13,,,,,,,,,,,,,,left,0.8645,,0,0.5,240.1334,0,12,12,12,1,stimuli/bead_g.PNG,stimuli/bead_b.PNG,stimuli/bead_g.PNG,stimuli/bead_b.PNG,stimuli/bead_y.PNG,2,3,right
,2023-10-02_19h31.18.207,Fish_Game,2023.1.3,MacIntel,60.06006006,,,,,,,,,,,,,14,,,,,,,,,,,,,,left,1.6517,,0,0.5,242.8141,0,13,13,13,1,stimuli/bead_g.PNG,stimuli/bead_g.PNG,stimuli/bead_b.PNG,stimuli/bead_g.PNG,stimuli/bead_b.PNG,2,3,right
,2023-10-02_19h31.18.207,Fish_Game,2023.1.3,MacIntel,60.06006006,,,,,,,,,,,,,15,,,,,,,,,,,,,,right,0.0996,,1,1.5,244.9458,0,14,14,14,1,stimuli/bead_g.PNG,stimuli/bead_g.PNG,stimuli/bead_g.PNG,stimuli/bead_b.PNG,stimuli/bead_g.PNG,2,3,right
,2023-10-02_19h31.18.207,Fish_Game,2023.1.3,MacIntel,60.06006006,,,,,,,,,,,,,1,,,,,,,,,,,,2,1condition/mainTrials2.xlsx,up,0.594,,1,0.5,251.5579,0,0,0,0,1,stimuli/bead_y.PNG,stimuli/blank.jpg,stimuli/blank.jpg,stimuli/blank.jpg,stimuli/blank.jpg,1,2,up
,2023-10-02_19h31.18.207,Fish_Game,2023.1.3,MacIntel,60.06006006,,,,,,,,,,,,,2,,,,,,,,,,,,,,up,0.1174,,1,1,253.2071,0,1,1,1,1,stimuli/bead_b.PNG,stimuli/bead_y.PNG,stimuli/blank.jpg,stimuli/blank.jpg,stimuli/blank.jpg,1,2,up
,2023-10-02_19h31.18.207,Fish_Game,2023.1.3,MacIntel,60.06006006,,,,,,,,,,,,,3,,,,,,,,,,,,,,up,0.4769,,1,1,255.2052,0,2,2,2,1,stimuli/bead_y.PNG,stimuli/bead_b.PNG,stimuli/bead_y.PNG,stimuli/blank.jpg,stimuli/blank.jpg,1,2,up
,2023-10-02_19h31.18.207,Fish_Game,2023.1.3,MacIntel,60.06006006,,,,,,,,,,,,,4,,,,,,,,,,,,,,up,0.5768,,1,1.5,257.7891,0,3,3,3,1,stimuli/bead_y.PNG,stimuli/bead_y.PNG,stimuli/bead_b.PNG,stimuli/bead_y.PNG,stimuli/blank.jpg,1,2,up
,2023-10-02_19h31.18.207,Fish_Game,2023.1.3,MacIntel,60.06006006,,,,,,,,,,,,,5,,,,,,,,,,,,,,up,0.4722,,1,1.5,260.2871,0,4,4,4,1,stimuli/bead_g.PNG,stimuli/bead_y.PNG,stimuli/bead_y.PNG,stimuli/bead_b.PNG,stimuli/bead_y.PNG,1,2,up
,2023-10-02_19h31.18.207,Fish_Game,2023.1.3,MacIntel,60.06006006,,,,,,,,,,,,,6,,,,,,,,,,,,,,up,0.5804,,1,0.5,261.9022,0,5,5,5,1,stimuli/bead_y.PNG,stimuli/bead_g.PNG,stimuli/bead_y.PNG,stimuli/bead_y.PNG,stimuli/bead_b.PNG,1,2,up
,2023-10-02_19h31.18.207,Fish_Game,2023.1.3,MacIntel,60.06006006,,,,,,,,,,,,,7,,,,,,,,,,,,,,up,0.7392,,0,1,264.1641,0,6,6,6,1,stimuli/bead_b.PNG,stimuli/bead_y.PNG,stimuli/bead_g.PNG,stimuli/bead_y.PNG,stimuli/bead_y.PNG,0,1,left
,2023-10-02_19h31.18.207,Fish_Game,2023.1.3,MacIntel,60.06006006,,,,,,,,,,,,,8,,,,,,,,,,,,,,up,0.4796,,0,1,266.1644,0,7,7,7,1,stimuli/bead_b.PNG,stimuli/bead_b.PNG,stimuli/bead_y.PNG,stimuli/bead_g.PNG,stimuli/bead_y.PNG,0,1,left
,2023-10-02_19h31.18.207,Fish_Game,2023.1.3,MacIntel,60.06006006,,,,,,,,,,,,,9,,,,,,,,,,,,,,left,0.316,,1,1,268.0042,0,8,8,8,1,stimuli/bead_y.PNG,stimuli/bead_b.PNG,stimuli/bead_b.PNG,stimuli/bead_y.PNG,stimuli/bead_g.PNG,0,1,left
,2023-10-02_19h31.18.207,Fish_Game,2023.1.3,MacIntel,60.06006006,,,,,,,,,,,,,10,,,,,,,,,,,,,,left,0.4002,,1,1,269.9365,0,9,9,9,1,stimuli/bead_b.PNG,stimuli/bead_y.PNG,stimuli/bead_b.PNG,stimuli/bead_b.PNG,stimuli/bead_y.PNG,0,1,left
,2023-10-02_19h31.18.207,Fish_Game,2023.1.3,MacIntel,60.06006006,,,,,,,,,,,,,11,,,,,,,,,,,,,,left,0.4748,,1,1,271.9331,0,10,10,10,1,stimuli/bead_b.PNG,stimuli/bead_b.PNG,stimuli/bead_y.PNG,stimuli/bead_b.PNG,stimuli/bead_b.PNG,0,1,left
,2023-10-02_19h31.18.207,Fish_Game,2023.1.3,MacIntel,60.06006006,,,,,,,,,,,,,12,,,,,,,,,,,,,,left,0.5552,,1,1.5,274.5143,0,11,11,11,1,stimuli/bead_b.PNG,stimuli/bead_b.PNG,stimuli/bead_b.PNG,stimuli/bead_y.PNG,stimuli/bead_b.PNG,0,1,left
,2023-10-02_19h31.18.207,Fish_Game,2023.1.3,MacIntel,60.06006006,,,,,,,,,,,,,13,,,,,,,,,,,,,,left,0.6009,,1,1,276.6339,0,12,12,12,1,stimuli/bead_g.PNG,stimuli/bead_b.PNG,stimuli/bead_b.PNG,stimuli/bead_b.PNG,stimuli/bead_y.PNG,0,1,left
,2023-10-02_19h31.18.207,Fish_Game,2023.1.3,MacIntel,60.06006006,,,,,,,,,,,,,14,,,,,,,,,,,,,,left,0.6198,,1,0.5,278.281,0,13,13,13,1,stimuli/bead_b.PNG,stimuli/bead_g.PNG,stimuli/bead_b.PNG,stimuli/bead_b.PNG,stimuli/bead_b.PNG,0,1,left
,2023-10-02_19h31.18.207,Fish_Game,2023.1.3,MacIntel,60.06006006,,,,,,,,,,,,,15,,,,,,,,,,,,,,left,0.3745,,1,1,280.1782,0,14,14,14,1,stimuli/bead_b.PNG,stimuli/bead_b.PNG,stimuli/bead_g.PNG,stimuli/bead_b.PNG,stimuli/bead_b.PNG,0,1,left
,2023-10-02_19h31.18.207,Fish_Game,2023.1.3,MacIntel,60.06006006,,,,,,,,,,,,,1,,,,,,,,,,,,3,1condition/mainTrials8.xlsx,up,0.5784,,0,0.5,286.7762,0,0,0,0,1,stimuli/bead_y.PNG,stimuli/blank.jpg,stimuli/blank.jpg,stimuli/blank.jpg,stimuli/blank.jpg,0,1,left
,2023-10-02_19h31.18.207,Fish_Game,2023.1.3,MacIntel,60.06006006,,,,,,,,,,,,,2,,,,,,,,,,,,,,left,0.7487,,1,0.5,288.5574,0,1,1,1,1,stimuli/bead_b.PNG,stimuli/bead_g.PNG,stimuli/blank.jpg,stimuli/blank.jpg,stimuli/blank.jpg,0,1,left
,2023-10-02_19h31.18.207,Fish_Game,2023.1.3,MacIntel,60.06006006,,,,,,,,,,,,,3,,,,,,,,,,,,,,left,1.0842,,1,1.5,291.671,0,2,2,2,1,stimuli/bead_g.PNG,stimuli/bead_y.PNG,stimuli/bead_g.PNG,stimuli/blank.jpg,stimuli/blank.jpg,0,1,left
,2023-10-02_19h31.18.207,Fish_Game,2023.1.3,MacIntel,60.06006006,,,,,,,,,,,,,4,,,,,,,,,,,,,,right,0.6803,,0,1.5,294.3846,0,3,3,3,1,stimuli/bead_b.PNG,stimuli/bead_y.PNG,stimuli/bead_y.PNG,stimuli/bead_g.PNG,stimuli/blank.jpg,0,1,left
,2023-10-02_19h31.18.207,Fish_Game,2023.1.3,MacIntel,60.06006006,,,,,,,,,,,,,5,,,,,,,,,,,,,,left,0.8476,,1,0.5,296.2582,0,4,4,4,1,stimuli/bead_b.PNG,stimuli/bead_y.PNG,stimuli/bead_y.PNG,stimuli/bead_y.PNG,stimuli/bead_g.PNG,0,1,left
,2023-10-02_19h31.18.207,Fish_Game,2023.1.3,MacIntel,60.06006006,,,,,,,,,,,,,6,,,,,,,,,,,,,,up,0.112,,0,1,297.888,0,5,5,5,1,stimuli/bead_b.PNG,stimuli/bead_b.PNG,stimuli/bead_y.PNG,stimuli/bead_y.PNG,stimuli/bead_y.PNG,0,1,left
,2023-10-02_19h31.18.207,Fish_Game,2023.1.3,MacIntel,60.06006006,,,,,,,,,,,,,7,,,,,,,,,,,,,,left,0.5338,,1,1.5,300.4511,0,6,6,6,1,stimuli/bead_g.PNG,stimuli/bead_y.PNG,stimuli/bead_b.PNG,stimuli/bead_y.PNG,stimuli/bead_y.PNG,0,1,left
,2023-10-02_19h31.18.207,Fish_Game,2023.1.3,MacIntel,60.06006006,,,,,,,,,,,,,8,,,,,,,,,,,,,,left,0.6739,,1,0.5,302.1323,0,7,7,7,1,stimuli/bead_b.PNG,stimuli/bead_y.PNG,stimuli/bead_y.PNG,stimuli/bead_b.PNG,stimuli/bead_y.PNG,0,1,left
,2023-10-02_19h31.18.207,Fish_Game,2023.1.3,MacIntel,60.06006006,,,,,,,,,,,,,9,,,,,,,,,,,,,,left,0.4746,,1,1.5,304.6292,0,8,8,8,1,stimuli/bead_y.PNG,stimuli/bead_y.PNG,stimuli/bead_y.PNG,stimuli/bead_y.PNG,stimuli/bead_b.PNG,0,1,left
,2023-10-02_19h31.18.207,Fish_Game,2023.1.3,MacIntel,60.06006006,,,,,,,,,,,,,10,,,,,,,,,,,,,,up,0.0525,,0,0.5,305.7129,0,9,9,9,1,stimuli/bead_b.PNG,stimuli/bead_y.PNG,stimuli/bead_y.PNG,stimuli/bead_y.PNG,stimuli/bead_y.PNG,0,1,left
,2023-10-02_19h31.18.207,Fish_Game,2023.1.3,MacIntel,60.06006006,,,,,,,,,,,,,11,,,,,,,,,,,,,,up,0.6357,,0,0.5,307.3643,0,10,10,10,1,stimuli/bead_b.PNG,stimuli/bead_b.PNG,stimuli/bead_y.PNG,stimuli/bead_y.PNG,stimuli/bead_y.PNG,0,1,left
,2023-10-02_19h31.18.207,Fish_Game,2023.1.3,MacIntel,60.06006006,,,,,,,,,,,,,12,,,,,,,,,,,,,,up,0.5413,,1,0.5,308.9289,0,11,11,11,1,stimuli/bead_y.PNG,stimuli/bead_y.PNG,stimuli/bead_b.PNG,stimuli/bead_y.PNG,stimuli/bead_y.PNG,1,2,up
,2023-10-02_19h31.18.207,Fish_Game,2023.1.3,MacIntel,60.06006006,,,,,,,,,,,,,13,,,,,,,,,,,,,,up,0.4322,,1,0.5,310.3924,0,12,12,12,1,stimuli/bead_y.PNG,stimuli/bead_y.PNG,stimuli/bead_y.PNG,stimuli/bead_b.PNG,stimuli/bead_y.PNG,1,2,up
,2023-10-02_19h31.18.207,Fish_Game,2023.1.3,MacIntel,60.06006006,,,,,,,,,,,,,14,,,,,,,,,,,,,,up,0.3747,,1,1,312.2931,0,13,13,13,1,stimuli/bead_y.PNG,stimuli/bead_g.PNG,stimuli/bead_y.PNG,stimuli/bead_y.PNG,stimuli/bead_b.PNG,1,2,up
,2023-10-02_19h31.18.207,Fish_Game,2023.1.3,MacIntel,60.06006006,,,,,,,,,,,,,15,,,,,,,,,,,,,,,,,,0.5,312.2931,0,14,14,14,1,stimuli/bead_g.PNG,stimuli/bead_g.PNG,stimuli/bead_g.PNG,stimuli/bead_y.PNG,stimuli/bead_y.PNG,1,2,up
,2023-10-02_19h31.18.207,Fish_Game,2023.1.3,MacIntel,60.06006006,,,,,,,,,,,,,1,,,,,,,,,,,,4,1condition/mainTrials3.xlsx,up,1.4492,,1,0.5,324.9846,0,0,0,0,1,stimuli/bead_y.PNG,stimuli/blank.jpg,stimuli/blank.jpg,stimuli/blank.jpg,stimuli/blank.jpg,1,2,up
,2023-10-02_19h31.18.207,Fish_Game,2023.1.3,MacIntel,60.06006006,,,,,,,,,,,,,2,,,,,,,,,,,,,,up,0.5889,,1,1,327.0916,0,1,1,1,1,stimuli/bead_y.PNG,stimuli/bead_y.PNG,stimuli/blank.jpg,stimuli/blank.jpg,stimuli/blank.jpg,1,2,up
,2023-10-02_19h31.18.207,Fish_Game,2023.1.3,MacIntel,60.06006006,,,,,,,,,,,,,3,,,,,,,,,,,,,,up,1.45,,1,0.5,329.5728,0,2,2,2,1,stimuli/bead_b.PNG,stimuli/bead_y.PNG,stimuli/bead_y.PNG,stimuli/blank.jpg,stimuli/blank.jpg,1,2,up
,2023-10-02_19h31.18.207,Fish_Game,2023.1.3,MacIntel,60.06006006,,,,,,,,,,,,,4,,,,,,,,,,,,,,up,0.4656,,1,1.5,332.0698,0,3,3,3,1,stimuli/bead_y.PNG,stimuli/bead_b.PNG,stimuli/bead_y.PNG,stimuli/bead_y.PNG,stimuli/blank.jpg,1,2,up
,2023-10-02_19h31.18.207,Fish_Game,2023.1.3,MacIntel,60.06006006,,,,,,,,,,,,,5,,,,,,,,,,,,,,up,0.4042,,1,1.5,334.5014,0,4,4,4,1,stimuli/bead_y.PNG,stimuli/bead_y.PNG,stimuli/bead_b.PNG,stimuli/bead_y.PNG,stimuli/bead_y.PNG,1,2,up
,2023-10-02_19h31.18.207,Fish_Game,2023.1.3,MacIntel,60.06006006,,,,,,,,,,,,,6,,,,,,,,,,,,,,up,0.2102,,1,1.5,336.7397,0,5,5,5,1,stimuli/bead_y.PNG,stimuli/bead_y.PNG,stimuli/bead_y.PNG,stimuli/bead_b.PNG,stimuli/bead_y.PNG,1,2,up
,2023-10-02_19h31.18.207,Fish_Game,2023.1.3,MacIntel,60.06006006,,,,,,,,,,,,,7,,,,,,,,,,,,,,up,0.4916,,1,1,338.7528,0,6,6,6,1,stimuli/bead_b.PNG,stimuli/bead_y.PNG,stimuli/bead_y.PNG,stimuli/bead_y.PNG,stimuli/bead_b.PNG,1,2,up
,2023-10-02_19h31.18.207,Fish_Game,2023.1.3,MacIntel,60.06006006,,,,,,,,,,,,,8,,,,,,,,,,,,,,up,0.8831,,1,1.5,341.6666,0,7,7,7,1,stimuli/bead_y.PNG,stimuli/bead_b.PNG,stimuli/bead_y.PNG,stimuli/bead_y.PNG,stimuli/bead_y.PNG,1,2,up
,2023-10-02_19h31.18.207,Fish_Game,2023.1.3,MacIntel,60.06006006,,,,,,,,,,,,,9,,,,,,,,,,,,,,up,0.7174,,1,1,343.9143,0,8,8,8,1,stimuli/bead_y.PNG,stimuli/bead_y.PNG,stimuli/bead_b.PNG,stimuli/bead_y.PNG,stimuli/bead_y.PNG,1,2,up
,2023-10-02_19h31.18.207,Fish_Game,2023.1.3,MacIntel,60.06006006,,,,,,,,,,,,,10,,,,,,,,,,,,,,up,0.8724,,1,1.5,346.8144,0,9,9,9,1,stimuli/bead_g.PNG,stimuli/bead_y.PNG,stimuli/bead_y.PNG,stimuli/bead_b.PNG,stimuli/bead_y.PNG,1,2,up
,2023-10-02_19h31.18.207,Fish_Game,2023.1.3,MacIntel,60.06006006,,,,,,,,,,,,,11,,,,,,,,,,,,,,up,0.4713,,1,1,348.8125,0,10,10,10,1,stimuli/bead_y.PNG,stimuli/bead_g.PNG,stimuli/bead_y.PNG,stimuli/bead_y.PNG,stimuli/bead_b.PNG,1,2,up
,2023-10-02_19h31.18.207,Fish_Game,2023.1.3,MacIntel,60.06006006,,,,,,,,,,,,,12,,,,,,,,,,,,,,up,0.617,,1,1,350.9598,0,11,11,11,1,stimuli/bead_g.PNG,stimuli/bead_y.PNG,stimuli/bead_g.PNG,stimuli/bead_y.PNG,stimuli/bead_y.PNG,1,2,up
,2023-10-02_19h31.18.207,Fish_Game,2023.1.3,MacIntel,60.06006006,,,,,,,,,,,,,13,,,,,,,,,,,,,,up,0.5223,,1,1,353.0085,0,12,12,12,1,stimuli/bead_y.PNG,stimuli/bead_g.PNG,stimuli/bead_y.PNG,stimuli/bead_g.PNG,stimuli/bead_y.PNG,1,2,up
,2023-10-02_19h31.18.207,Fish_Game,2023.1.3,MacIntel,60.06006006,,,,,,,,,,,,,14,,,,,,,,,,,,,,up,0.1002,,1,1,354.6398,0,13,13,13,1,stimuli/bead_y.PNG,stimuli/bead_y.PNG,stimuli/bead_g.PNG,stimuli/bead_y.PNG,stimuli/bead_g.PNG,1,2,up
,2023-10-02_19h31.18.207,Fish_Game,2023.1.3,MacIntel,60.06006006,,,,,,,,,,,,,15,,,,,,,,,,,,,,up,0.3004,,1,0.5,355.971,0,14,14,14,1,stimuli/bead_y.PNG,stimuli/bead_y.PNG,stimuli/bead_y.PNG,stimuli/bead_g.PNG,stimuli/bead_y.PNG,1,2,up
,2023-10-02_19h31.18.207,Fish_Game,2023.1.3,MacIntel,60.06006006,,,,,,,,,,,,,1,,,,,,,,,,,,5,1condition/mainTrials1.xlsx,up,0.187,,0,1.5,363.1847,0,0,0,0,1,stimuli/bead_g.PNG,stimuli/blank.jpg,stimuli/blank.jpg,stimuli/blank.jpg,stimuli/blank.jpg,2,3,right
,2023-10-02_19h31.18.207,Fish_Game,2023.1.3,MacIntel,60.06006006,,,,,,,,,,,,,2,,,,,,,,,,,,,,right,0.4432,,1,1.5,365.6487,0,1,1,1,1,stimuli/bead_y.PNG,stimuli/bead_g.PNG,stimuli/blank.jpg,stimuli/blank.jpg,stimuli/blank.jpg,2,3,right
,2023-10-02_19h31.18.207,Fish_Game,2023.1.3,MacIntel,60.06006006,,,,,,,,,,,,,3,,,,,,,,,,,,,,right,0.5855,,1,1,367.7538,0,2,2,2,1,stimuli/bead_g.PNG,stimuli/bead_y.PNG,stimuli/bead_g.PNG,stimuli/blank.jpg,stimuli/blank.jpg,2,3,right
,2023-10-02_19h31.18.207,Fish_Game,2023.1.3,MacIntel,60.06006006,,,,,,,,,,,,,4,,,,,,,,,,,,,,right,0.0012,,1,1,369.2863,0,3,3,3,1,stimuli/bead_b.PNG,stimuli/bead_g.PNG,stimuli/bead_y.PNG,stimuli/bead_g.PNG,stimuli/blank.jpg,2,3,right
,2023-10-02_19h31.18.207,Fish_Game,2023.1.3,MacIntel,60.06006006,,,,,,,,,,,,,5,,,,,,,,,,,,,,right,0.5,,1,1,371.3178,0,4,4,4,1,stimuli/bead_g.PNG,stimuli/bead_b.PNG,stimuli/bead_g.PNG,stimuli/bead_y.PNG,stimuli/bead_g.PNG,2,3,right
,2023-10-02_19h31.18.207,Fish_Game,2023.1.3,MacIntel,60.06006006,,,,,,,,,,,,,6,,,,,,,,,,,,,,right,0.1768,,1,0.5,372.5143,0,5,5,5,1,stimuli/bead_g.PNG,stimuli/bead_g.PNG,stimuli/bead_b.PNG,stimuli/bead_g.PNG,stimuli/bead_y.PNG,2,3,right
,2023-10-02_19h31.18.207,Fish_Game,2023.1.3,MacIntel,60.06006006,,,,,,,,,,,,,7,,,,,,,,,,,,,,right,0.5107,,1,0.5,374.0494,0,6,6,6,1,stimuli/bead_g.PNG,stimuli/bead_g.PNG,stimuli/bead_g.PNG,stimuli/bead_b.PNG,stimuli/bead_g.PNG,2,3,right
,2023-10-02_19h31.18.207,Fish_Game,2023.1.3,MacIntel,60.06006006,,,,,,,,,,,,,8,,,,,,,,,,,,,,right,0.2201,,1,0.5,375.2978,0,7,7,7,1,stimuli/bead_g.PNG,stimuli/bead_g.PNG,stimuli/bead_g.PNG,stimuli/bead_g.PNG,stimuli/bead_b.PNG,2,3,right
,2023-10-02_19h31.18.207,Fish_Game,2023.1.3,MacIntel,60.06006006,,,,,,,,,,,,,9,,,,,,,,,,,,,,right,0.6875,,1,1.5,378.0155,0,8,8,8,1,stimuli/bead_b.PNG,stimuli/bead_g.PNG,stimuli/bead_g.PNG,stimuli/bead_g.PNG,stimuli/bead_g.PNG,2,3,right
,2023-10-02_19h31.18.207,Fish_Game,2023.1.3,MacIntel,60.06006006,,,,,,,,,,,,,10,,,,,,,,,,,,,,right,0.415,,1,0.5,379.4643,0,9,9,9,1,stimuli/bead_g.PNG,stimuli/bead_b.PNG,stimuli/bead_g.PNG,stimuli/bead_g.PNG,stimuli/bead_g.PNG,2,3,right
,2023-10-02_19h31.18.207,Fish_Game,2023.1.3,MacIntel,60.06006006,,,,,,,,,,,,,11,,,,,,,,,,,,,,,,,,1.5,379.4643,0,10,10,10,1,stimuli/bead_g.PNG,stimuli/bead_g.PNG,stimuli/bead_b.PNG,stimuli/bead_g.PNG,stimuli/bead_g.PNG,2,3,right
,2023-10-02_19h31.18.207,Fish_Game,2023.1.3,MacIntel,60.06006006,,,,,,,,,,,,,12,,,,,,,,,,,,,,right,0.2991,,1,1.5,386.9933,0,11,11,11,1,stimuli/bead_g.PNG,stimuli/bead_g.PNG,stimuli/bead_g.PNG,stimuli/bead_b.PNG,stimuli/bead_g.PNG,2,3,right
,2023-10-02_19h31.18.207,Fish_Game,2023.1.3,MacIntel,60.06006006,,,,,,,,,,,,,13,,,,,,,,,,,,,,right,0.5797,,0,1,389.1072,0,12,12,12,1,stimuli/bead_b.PNG,stimuli/bead_g.PNG,stimuli/bead_g.PNG,stimuli/bead_g.PNG,stimuli/bead_b.PNG,0,1,left
,2023-10-02_19h31.18.207,Fish_Game,2023.1.3,MacIntel,60.06006006,,,,,,,,,,,,,14,,,,,,,,,,,,,,right,1.8998,,0,1.5,393.037,0,13,13,13,1,stimuli/bead_b.PNG,stimuli/bead_b.PNG,stimuli/bead_g.PNG,stimuli/bead_g.PNG,stimuli/bead_g.PNG,0,1,left
,2023-10-02_19h31.18.207,Fish_Game,2023.1.3,MacIntel,60.06006006,,,,,,,,,,,,,15,,,,,,,,,,,,,,right,0.6154,,0,1.5,395.6837,0,14,14,14,1,stimuli/bead_b.PNG,stimuli/bead_b.PNG,stimuli/bead_b.PNG,stimuli/bead_g.PNG,stimuli/bead_g.PNG,0,1,left
,2023-10-02_19h31.18.207,Fish_Game,2023.1.3,MacIntel,60.06006006,,,,,,,,,,,,,1,,,,,,,,,,,,6,1condition/mainTrials4.xlsx,right,0.6517,,1,0.5,402.3665,0,0,0,0,1,stimuli/bead_g.PNG,stimuli/blank.jpg,stimuli/blank.jpg,stimuli/blank.jpg,stimuli/blank.jpg,2,3,right
,2023-10-02_19h31.18.207,Fish_Game,2023.1.3,MacIntel,60.06006006,,,,,,,,,,,,,2,,,,,,,,,,,,,,right,0.4408,,1,1,404.3319,0,1,1,1,1,stimuli/bead_g.PNG,stimuli/bead_g.PNG,stimuli/blank.jpg,stimuli/blank.jpg,stimuli/blank.jpg,2,3,right
,2023-10-02_19h31.18.207,Fish_Game,2023.1.3,MacIntel,60.06006006,,,,,,,,,,,,,3,,,,,,,,,,,,,,right,0.6425,,1,0.5,405.9797,0,2,2,2,1,stimuli/bead_b.PNG,stimuli/bead_g.PNG,stimuli/bead_g.PNG,stimuli/blank.jpg,stimuli/blank.jpg,2,3,right
,2023-10-02_19h31.18.207,Fish_Game,2023.1.3,MacIntel,60.06006006,,,,,,,,,,,,,4,,,,,,,,,,,,,,right,0.7376,,1,0.5,407.7326,0,3,3,3,1,stimuli/bead_g.PNG,stimuli/bead_b.PNG,stimuli/bead_g.PNG,stimuli/bead_g.PNG,stimuli/blank.jpg,2,3,right
,2023-10-02_19h31.18.207,Fish_Game,2023.1.3,MacIntel,60.06006006,,,,,,,,,,,,,5,,,,,,,,,,,,,,right,0.227,,1,0.5,408.9809,0,4,4,4,1,stimuli/bead_g.PNG,stimuli/bead_g.PNG,stimuli/bead_b.PNG,stimuli/bead_g.PNG,stimuli/bead_g.PNG,2,3,right
,2023-10-02_19h31.18.207,Fish_Game,2023.1.3,MacIntel,60.06006006,,,,,,,,,,,,,6,,,,,,,,,,,,,,right,0.8376,,1,1,411.3451,0,5,5,5,1,stimuli/bead_y.PNG,stimuli/bead_g.PNG,stimuli/bead_g.PNG,stimuli/bead_b.PNG,stimuli/bead_g.PNG,2,3,right
,2023-10-02_19h31.18.207,Fish_Game,2023.1.3,MacIntel,60.06006006,,,,,,,,,,,,,7,,,,,,,,,,,,,,right,0.0006,,1,0.5,412.3607,0,6,6,6,1,stimuli/bead_g.PNG,stimuli/bead_y.PNG,stimuli/bead_g.PNG,stimuli/bead_g.PNG,stimuli/bead_b.PNG,2,3,right
,2023-10-02_19h31.18.207,Fish_Game,2023.1.3,MacIntel,60.06006006,,,,,,,,,,,,,8,,,,,,,,,,,,,,right,0.0938,,0,0.5,413.4739,0,7,7,7,1,stimuli/bead_y.PNG,stimuli/bead_g.PNG,stimuli/bead_y.PNG,stimuli/bead_g.PNG,stimuli/bead_g.PNG,1,2,up
,2023-10-02_19h31.18.207,Fish_Game,2023.1.3,MacIntel,60.06006006,,,,,,,,,,,,,9,,,,,,,,,,,,,,right,0.5121,,0,0.5,415.0094,0,8,8,8,1,stimuli/bead_y.PNG,stimuli/bead_y.PNG,stimuli/bead_g.PNG,stimuli/bead_y.PNG,stimuli/bead_g.PNG,1,2,up
,2023-10-02_19h31.18.207,Fish_Game,2023.1.3,MacIntel,60.06006006,,,,,,,,,,,,,10,,,,,,,,,,,,,,up,0.0314,,1,1.5,417.0569,0,9,9,9,1,stimuli/bead_g.PNG,stimuli/bead_y.PNG,stimuli/bead_y.PNG,stimuli/bead_g.PNG,stimuli/bead_y.PNG,1,2,up
,2023-10-02_19h31.18.207,Fish_Game,2023.1.3,MacIntel,60.06006006,,,,,,,,,,,,,11,,,,,,,,,,,,,,right,0.0932,,0,1.5,419.1732,0,10,10,10,1,stimuli/bead_y.PNG,stimuli/bead_g.PNG,stimuli/bead_y.PNG,stimuli/bead_y.PNG,stimuli/bead_g.PNG,1,2,up
,2023-10-02_19h31.18.207,Fish_Game,2023.1.3,MacIntel,60.06006006,,,,,,,,,,,,,12,,,,,,,,,,,,,,right,0.3699,,0,1,421.0714,0,11,11,11,1,stimuli/bead_y.PNG,stimuli/bead_y.PNG,stimuli/bead_g.PNG,stimuli/bead_y.PNG,stimuli/bead_y.PNG,1,2,up
,2023-10-02_19h31.18.207,Fish_Game,2023.1.3,MacIntel,60.06006006,,,,,,,,,,,,,13,,,,,,,,,,,,,,up,0.0512,,1,1.5,423.1535,0,12,12,12,1,stimuli/bead_g.PNG,stimuli/bead_y.PNG,stimuli/bead_y.PNG,stimuli/bead_g.PNG,stimuli/bead_y.PNG,1,2,up
,2023-10-02_19h31.18.207,Fish_Game,2023.1.3,MacIntel,60.06006006,,,,,,,,,,,,,14,,,,,,,,,,,,,,right,0.3904,,0,1.5,425.5671,0,13,13,13,1,stimuli/bead_y.PNG,stimuli/bead_g.PNG,stimuli/bead_y.PNG,stimuli/bead_y.PNG,stimuli/bead_g.PNG,1,2,up
,2023-10-02_19h31.18.207,Fish_Game,2023.1.3,MacIntel,60.06006006,,,,,,,,,,,,,15,,,,,,,,,,,,,,right,0.4101,,0,1.5,427.9878,0,14,14,14,1,stimuli/bead_y.PNG,stimuli/bead_y.PNG,stimuli/bead_g.PNG,stimuli/bead_y.PNG,stimuli/bead_y.PNG,1,2,up
,2023-10-02_19h31.18.207,Fish_Game,2023.1.3,MacIntel,60.06006006,,,,,,,,,,,,,1,,,,,,,,,,,,7,1condition/mainTrials5.xlsx,left,0.6887,,1,1,435.1983,0,0,0,0,1,stimuli/bead_b.PNG,stimuli/blank.jpg,stimuli/blank.jpg,stimuli/blank.jpg,stimuli/blank.jpg,0,1,left
,2023-10-02_19h31.18.207,Fish_Game,2023.1.3,MacIntel,60.06006006,,,,,,,,,,,,,2,,,,,,,,,,,,,,left,0.4213,,1,0.5,436.6458,0,1,1,1,1,stimuli/bead_b.PNG,stimuli/bead_b.PNG,stimuli/blank.jpg,stimuli/blank.jpg,stimuli/blank.jpg,0,1,left
,2023-10-02_19h31.18.207,Fish_Game,2023.1.3,MacIntel,60.06006006,,,,,,,,,,,,,3,,,,,,,,,,,,,,left,0.52,,1,0.5,438.1977,0,2,2,2,1,stimuli/bead_y.PNG,stimuli/bead_b.PNG,stimuli/bead_b.PNG,stimuli/blank.jpg,stimuli/blank.jpg,0,1,left
,2023-10-02_19h31.18.207,Fish_Game,2023.1.3,MacIntel,60.06006006,,,,,,,,,,,,,4,,,,,,,,,,,,,,left,0.3501,,1,1.5,440.5778,0,3,3,3,1,stimuli/bead_b.PNG,stimuli/bead_y.PNG,stimuli/bead_b.PNG,stimuli/bead_b.PNG,stimuli/blank.jpg,0,1,left
,2023-10-02_19h31.18.207,Fish_Game,2023.1.3,MacIntel,60.06006006,,,,,,,,,,,,,5,,,,,,,,,,,,,,left,0.2737,,1,0.5,441.8766,0,4,4,4,1,stimuli/bead_b.PNG,stimuli/bead_b.PNG,stimuli/bead_y.PNG,stimuli/bead_b.PNG,stimuli/bead_b.PNG,0,1,left
,2023-10-02_19h31.18.207,Fish_Game,2023.1.3,MacIntel,60.06006006,,,,,,,,,,,,,6,,,,,,,,,,,,,,left,0.2451,,0,0.5,443.1259,0,5,5,5,1,stimuli/bead_g.PNG,stimuli/bead_b.PNG,stimuli/bead_b.PNG,stimuli/bead_y.PNG,stimuli/bead_b.PNG,2,3,right
,2023-10-02_19h31.18.207,Fish_Game,2023.1.3,MacIntel,60.06006006,,,,,,,,,,,,,7,,,,,,,,,,,,,,left,0.3198,,0,0.5,444.4751,0,6,6,6,1,stimuli/bead_g.PNG,stimuli/bead_g.PNG,stimuli/bead_b.PNG,stimuli/bead_b.PNG,stimuli/bead_y.PNG,2,2,right
,2023-10-02_19h31.18.207,Fish_Game,2023.1.3,MacIntel,60.06006006,,,,,,,,,,,,,8,,,,,,,,,,,,,,left,0.9545,,0,1.5,447.4568,0,7,7,7,1,stimuli/bead_b.PNG,stimuli/bead_g.PNG,stimuli/bead_g.PNG,stimuli/bead_b.PNG,stimuli/bead_b.PNG,2,2,right
,2023-10-02_19h31.18.207,Fish_Game,2023.1.3,MacIntel,60.06006006,,,,,,,,,,,,,9,,,,,,,,,,,,,,right,0.7433,,1,1,449.7226,0,8,8,8,1,stimuli/bead_g.PNG,stimuli/bead_b.PNG,stimuli/bead_g.PNG,stimuli/bead_g.PNG,stimuli/bead_b.PNG,2,2,right
,2023-10-02_19h31.18.207,Fish_Game,2023.1.3,MacIntel,60.06006006,,,,,,,,,,,,,10,,,,,,,,,,,,,,left,0.6017,,0,0.5,451.3527,0,9,9,9,1,stimuli/bead_b.PNG,stimuli/bead_g.PNG,stimuli/bead_b.PNG,stimuli/bead_g.PNG,stimuli/bead_g.PNG,2,2,right
,2023-10-02_19h31.18.207,Fish_Game,2023.1.3,MacIntel,60.06006006,,,,,,,,,,,,,11,,,,,,,,,,,,,,right,0.4541,,1,0.5,452.8352,0,10,10,10,1,stimuli/bead_g.PNG,stimuli/bead_b.PNG,stimuli/bead_g.PNG,stimuli/bead_b.PNG,stimuli/bead_g.PNG,2,2,right
,2023-10-02_19h31.18.207,Fish_Game,2023.1.3,MacIntel,60.06006006,,,,,,,,,,,,,12,,,,,,,,,,,,,,right,0.5521,,1,1.5,455.4167,0,11,11,11,1,stimuli/bead_g.PNG,stimuli/bead_g.PNG,stimuli/bead_b.PNG,stimuli/bead_g.PNG,stimuli/bead_b.PNG,2,2,right
,2023-10-02_19h31.18.207,Fish_Game,2023.1.3,MacIntel,60.06006006,,,,,,,,,,,,,13,,,,,,,,,,,,,,right,0.3907,,1,0.5,456.8314,0,12,12,12,1,stimuli/bead_g.PNG,stimuli/bead_g.PNG,stimuli/bead_g.PNG,stimuli/bead_b.PNG,stimuli/bead_g.PNG,2,3,right
,2023-10-02_19h31.18.207,Fish_Game,2023.1.3,MacIntel,60.06006006,,,,,,,,,,,,,14,,,,,,,,,,,,,,right,0.4311,,1,1,458.772,0,13,13,13,1,stimuli/bead_y.PNG,stimuli/bead_g.PNG,stimuli/bead_g.PNG,stimuli/bead_g.PNG,stimuli/bead_b.PNG,2,3,right
,2023-10-02_19h31.18.207,Fish_Game,2023.1.3,MacIntel,60.06006006,,,,,,,,,,,,,15,,,,,,,,,,,,,,right,0.438,,1,1.5,461.2347,0,14,14,14,1,stimuli/bead_g.PNG,stimuli/bead_y.PNG,stimuli/bead_g.PNG,stimuli/bead_g.PNG,stimuli/bead_g.PNG,2,3,right
,2023-10-02_19h31.18.207,Fish_Game,2023.1.3,MacIntel,60.06006006,,,,,,,,,,,,,1,,,,,,,,,,,,8,1condition/mainTrials7.xlsx,up,0.5969,,1,1,468.363,0,0,0,0,1,stimuli/bead_y.PNG,stimuli/blank.jpg,stimuli/blank.jpg,stimuli/blank.jpg,stimuli/blank.jpg,1,2,up
,2023-10-02_19h31.18.207,Fish_Game,2023.1.3,MacIntel,60.06006006,,,,,,,,,,,,,2,,,,,,,,,,,,,,up,0.4064,,1,1.5,470.795,0,1,1,1,1,stimuli/bead_y.PNG,stimuli/bead_y.PNG,stimuli/blank.jpg,stimuli/blank.jpg,stimuli/blank.jpg,1,2,up
,2023-10-02_19h31.18.207,Fish_Game,2023.1.3,MacIntel,60.06006006,,,,,,,,,,,,,3,,,,,,,,,,,,,,up,1.0217,,1,0.5,472.8424,0,2,2,2,1,stimuli/bead_g.PNG,stimuli/bead_y.PNG,stimuli/bead_y.PNG,stimuli/blank.jpg,stimuli/blank.jpg,1,2,up
,2023-10-02_19h31.18.207,Fish_Game,2023.1.3,MacIntel,60.06006006,,,,,,,,,,,,,4,,,,,,,,,,,,,,up,0.4334,,1,1.5,475.3076,0,3,3,3,1,stimuli/bead_y.PNG,stimuli/bead_g.PNG,stimuli/bead_y.PNG,stimuli/bead_y.PNG,stimuli/blank.jpg,1,2,up
,2023-10-02_19h31.18.207,Fish_Game,2023.1.3,MacIntel,60.06006006,,,,,,,,,,,,,5,,,,,,,,,,,,,,up,0.3966,,1,0.5,476.7224,0,4,4,4,1,stimuli/bead_y.PNG,stimuli/bead_y.PNG,stimuli/bead_g.PNG,stimuli/bead_y.PNG,stimuli/bead_y.PNG,1,2,up
,2023-10-02_19h31.18.207,Fish_Game,2023.1.3,MacIntel,60.06006006,,,,,,,,,,,,,6,,,,,,,,,,,,,,up,0.4168,,1,0.5,478.173,0,5,5,5,1,stimuli/bead_y.PNG,stimuli/bead_y.PNG,stimuli/bead_y.PNG,stimuli/bead_g.PNG,stimuli/bead_y.PNG,1,2,up
,2023-10-02_19h31.18.207,Fish_Game,2023.1.3,MacIntel,60.06006006,,,,,,,,,,,,,7,,,,,,,,,,,,,,up,0.4549,,1,1.5,480.6546,0,6,6,6,1,stimuli/bead_b.PNG,stimuli/bead_y.PNG,stimuli/bead_y.PNG,stimuli/bead_y.PNG,stimuli/bead_g.PNG,1,2,up
,2023-10-02_19h31.18.207,Fish_Game,2023.1.3,MacIntel,60.06006006,,,,,,,,,,,,,8,,,,,,,,,,,,,,up,0.3537,,1,1,482.5348,0,7,7,7,1,stimuli/bead_y.PNG,stimuli/bead_b.PNG,stimuli/bead_y.PNG,stimuli/bead_y.PNG,stimuli/bead_y.PNG,1,2,up
,2023-10-02_19h31.18.207,Fish_Game,2023.1.3,MacIntel,60.06006006,,,,,,,,,,,,,9,,,,,,,,,,,,,,up,0.4329,,0,0.5,484.0002,0,8,8,8,1,stimuli/bead_y.PNG,stimuli/bead_y.PNG,stimuli/bead_b.PNG,stimuli/bead_y.PNG,stimuli/bead_y.PNG,1,2,right
,2023-10-02_19h31.18.207,Fish_Game,2023.1.3,MacIntel,60.06006006,,,,,,,,,,,,,10,,,,,,,,,,,,,,up,0.4605,,0,0.5,485.4816,0,9,9,9,1,stimuli/bead_g.PNG,stimuli/bead_y.PNG,stimuli/bead_y.PNG,stimuli/bead_b.PNG,stimuli/bead_y.PNG,2,3,right
,2023-10-02_19h31.18.207,Fish_Game,2023.1.3,MacIntel,60.06006006,,,,,,,,,,,,,11,,,,,,,,,,,,,,up,0.3582,,0,1,487.3714,0,10,10,10,1,stimuli/bead_g.PNG,stimuli/bead_g.PNG,stimuli/bead_y.PNG,stimuli/bead_y.PNG,stimuli/bead_b.PNG,2,3,right
,2023-10-02_19h31.18.207,Fish_Game,2023.1.3,MacIntel,60.06006006,,,,,,,,,,,,,12,,,,,,,,,,,,,,right,0.2855,,1,1.5,489.6866,0,11,11,11,1,stimuli/bead_y.PNG,stimuli/bead_g.PNG,stimuli/bead_g.PNG,stimuli/bead_y.PNG,stimuli/bead_y.PNG,2,3,right
,2023-10-02_19h31.18.207,Fish_Game,2023.1.3,MacIntel,60.06006006,,,,,,,,,,,,,13,,,,,,,,,,,,,,right,0.6039,,1,1.5,492.3171,0,12,12,12,1,stimuli/bead_g.PNG,stimuli/bead_y.PNG,stimuli/bead_g.PNG,stimuli/bead_g.PNG,stimuli/bead_y.PNG,2,3,right
,2023-10-02_19h31.18.207,Fish_Game,2023.1.3,MacIntel,60.06006006,,,,,,,,,,,,,14,,,,,,,,,,,,,,right,0.3414,,1,1,494.1812,0,13,13,13,1,stimuli/bead_g.PNG,stimuli/bead_g.PNG,stimuli/bead_y.PNG,stimuli/bead_g.PNG,stimuli/bead_g.PNG,2,3,right
,2023-10-02_19h31.18.207,Fish_Game,2023.1.3,MacIntel,60.06006006,,,,,,,,,,,,,15,,,,,,,,,,,,,,right,0.3555,,1,1.5,496.5614,0,14,14,14,1,stimuli/bead_g.PNG,stimuli/bead_g.PNG,stimuli/bead_g.PNG,stimuli/bead_y.PNG,stimuli/bead_g.PNG,2,3,right
,2023-10-02_19h31.18.207,Fish_Game,2023.1.3,MacIntel,60.06006006,,,,,,,,,,,,,1,,,,,,,,,,,,9,1condition/mainTrials9.xlsx,right,0.5506,,1,1.5,504.1398,0,0,0,0,1,stimuli/bead_g.PNG,stimuli/blank.jpg,stimuli/blank.jpg,stimuli/blank.jpg,stimuli/blank.jpg,2,3,right
,2023-10-02_19h31.18.207,Fish_Game,2023.1.3,MacIntel,60.06006006,,,,,,,,,,,,,2,,,,,,,,,,,,,,right,0.4437,,1,1.5,506.6068,0,1,1,1,1,stimuli/bead_g.PNG,stimuli/bead_g.PNG,stimuli/blank.jpg,stimuli/blank.jpg,stimuli/blank.jpg,2,3,right
,2023-10-02_19h31.18.207,Fish_Game,2023.1.3,MacIntel,60.06006006,,,,,,,,,,,,,3,,,,,,,,,,,,,,right,0.4371,,1,1,508.5567,0,2,2,2,1,stimuli/bead_b.PNG,stimuli/bead_g.PNG,stimuli/bead_g.PNG,stimuli/blank.jpg,stimuli/blank.jpg,2,3,right
,2023-10-02_19h31.18.207,Fish_Game,2023.1.3,MacIntel,60.06006006,,,,,,,,,,,,,4,,,,,,,,,,,,,,right,0.3147,,1,1,510.4038,0,3,3,3,1,stimuli/bead_g.PNG,stimuli/bead_b.PNG,stimuli/bead_g.PNG,stimuli/bead_g.PNG,stimuli/blank.jpg,2,3,right
,2023-10-02_19h31.18.207,Fish_Game,2023.1.3,MacIntel,60.06006006,,,,,,,,,,,,,5,,,,,,,,,,,,,,right,0.5857,,1,0.5,512.0023,0,4,4,4,1,stimuli/bead_g.PNG,stimuli/bead_g.PNG,stimuli/bead_b.PNG,stimuli/bead_g.PNG,stimuli/bead_g.PNG,2,3,right
,2023-10-02_19h31.18.207,Fish_Game,2023.1.3,MacIntel,60.06006006,,,,,,,,,,,,,6,,,,,,,,,,,,,,right,0.5101,,1,1.5,514.5341,0,5,5,5,1,stimuli/bead_b.PNG,stimuli/bead_g.PNG,stimuli/bead_g.PNG,stimuli/bead_b.PNG,stimuli/bead_g.PNG,2,3,right
,2023-10-02_19h31.18.207,Fish_Game,2023.1.3,MacIntel,60.06006006,,,,,,,,,,,,,7,,,,,,,,,,,,,,right,0.341,,1,1,516.3985,0,6,6,6,1,stimuli/bead_g.PNG,stimuli/bead_b.PNG,stimuli/bead_g.PNG,stimuli/bead_g.PNG,stimuli/bead_b.PNG,2,3,right
,2023-10-02_19h31.18.207,Fish_Game,2023.1.3,MacIntel,60.06006006,,,,,,,,,,,,,8,,,,,,,,,,,,,,right,0.3835,,1,0.5,517.8035,0,7,7,7,1,stimuli/bead_g.PNG,stimuli/bead_g.PNG,stimuli/bead_b.PNG,stimuli/bead_g.PNG,stimuli/bead_g.PNG,2,3,right
,2023-10-02_19h31.18.207,Fish_Game,2023.1.3,MacIntel,60.06006006,,,,,,,,,,,,,9,,,,,,,,,,,,,,right,0.2338,,0,1.5,520.0672,0,8,8,8,1,stimuli/bead_b.PNG,stimuli/bead_g.PNG,stimuli/bead_g.PNG,stimuli/bead_b.PNG,stimuli/bead_g.PNG,0,1,left
,2023-10-02_19h31.18.207,Fish_Game,2023.1.3,MacIntel,60.06006006,,,,,,,,,,,,,10,,,,,,,,,,,,,,right,0.2689,,0,1.5,522.3645,0,9,9,9,1,stimuli/bead_y.PNG,stimuli/bead_b.PNG,stimuli/bead_g.PNG,stimuli/bead_g.PNG,stimuli/bead_b.PNG,0,1,left
,2023-10-02_19h31.18.207,Fish_Game,2023.1.3,MacIntel,60.06006006,,,,,,,,,,,,,11,,,,,,,,,,,,,,right,0.4758,,0,1.5,524.8616,0,10,10,10,1,stimuli/bead_b.PNG,stimuli/bead_y.PNG,stimuli/bead_b.PNG,stimuli/bead_g.PNG,stimuli/bead_g.PNG,0,1,left
,2023-10-02_19h31.18.207,Fish_Game,2023.1.3,MacIntel,60.06006006,,,,,,,,,,,,,12,,,,,,,,,,,,,,left,0.6783,,1,0.5,526.5445,0,11,11,11,1,stimuli/bead_b.PNG,stimuli/bead_b.PNG,stimuli/bead_y.PNG,stimuli/bead_b.PNG,stimuli/bead_g.PNG,0,1,left
,2023-10-02_19h31.18.207,Fish_Game,2023.1.3,MacIntel,60.06006006,,,,,,,,,,,,,13,,,,,,,,,,,,,,left,0.4561,,1,1,528.5281,0,12,12,12,1,stimuli/bead_b.PNG,stimuli/bead_b.PNG,stimuli/bead_b.PNG,stimuli/bead_y.PNG,stimuli/bead_b.PNG,0,1,left
,2023-10-02_19h31.18.207,Fish_Game,2023.1.3,MacIntel,60.06006006,,,,,,,,,,,,,14,,,,,,,,,,,,,,left,0.3985,,1,1,530.4604,0,13,13,13,1,stimuli/bead_g.PNG,stimuli/bead_b.PNG,stimuli/bead_b.PNG,stimuli/bead_b.PNG,stimuli/bead_y.PNG,0,1,left
,2023-10-02_19h31.18.207,Fish_Game,2023.1.3,MacIntel,60.06006006,,,,,,,,,,,,,15,,,,,,,,,,,,,,left,0.3093,,1,0.5,531.7908,0,14,14,14,1,stimuli/bead_b.PNG,stimuli/bead_g.PNG,stimuli/bead_b.PNG,stimuli/bead_b.PNG,stimuli/bead_b.PNG,0,1,left
,2023-10-02_19h31.18.207,Fish_Game,2023.1.3,MacIntel,60.06006006,,,,,,,,,,,,,1,,,,,,,,,,,,10,1condition/mainTrials6.xlsx,right,0.6808,,0,1.5,539.5036,0,0,0,0,1,stimuli/bead_g.PNG,stimuli/blank.jpg,stimuli/blank.jpg,stimuli/blank.jpg,stimuli/blank.jpg,1,2,up
,2023-10-02_19h31.18.207,Fish_Game,2023.1.3,MacIntel,60.06006006,,,,,,,,,,,,,2,,,,,,,,,,,,,,right,0.8894,,0,0.5,541.4038,0,1,1,1,1,stimuli/bead_y.PNG,stimuli/bead_g.PNG,stimuli/blank.jpg,stimuli/blank.jpg,stimuli/blank.jpg,1,2,up
,2023-10-02_19h31.18.207,Fish_Game,2023.1.3,MacIntel,60.06006006,,,,,,,,,,,,,3,,,,,,,,,,,,,,up,0.6388,,1,0.5,543.0676,0,2,2,2,1,stimuli/bead_y.PNG,stimuli/bead_y.PNG,stimuli/bead_g.PNG,stimuli/blank.jpg,stimuli/blank.jpg,1,2,up
,2023-10-02_19h31.18.207,Fish_Game,2023.1.3,MacIntel,60.06006006,,,,,,,,,,,,,4,,,,,,,,,,,,,,up,0.4692,,1,0.5,544.5672,0,3,3,3,1,stimuli/bead_y.PNG,stimuli/bead_y.PNG,stimuli/bead_y.PNG,stimuli/bead_g.PNG,stimuli/blank.jpg,1,2,up
,2023-10-02_19h31.18.207,Fish_Game,2023.1.3,MacIntel,60.06006006,,,,,,,,,,,,,5,,,,,,,,,,,,,,up,0.6217,,0,1.5,547.2115,0,4,4,4,1,stimuli/bead_g.PNG,stimuli/bead_y.PNG,stimuli/bead_y.PNG,stimuli/bead_y.PNG,stimuli/bead_g.PNG,2,3,right
,2023-10-02_19h31.18.207,Fish_Game,2023.1.3,MacIntel,60.06006006,,,,,,,,,,,,,6,,,,,,,,,,,,,,up,0.4677,,0,0.5,548.6871,0,5,5,5,1,stimuli/bead_g.PNG,stimuli/bead_g.PNG,stimuli/bead_y.PNG,stimuli/bead_y.PNG,stimuli/bead_y.PNG,2,3,right
,2023-10-02_19h31.18.207,Fish_Game,2023.1.3,MacIntel,60.06006006,,,,,,,,,,,,,7,,,,,,,,,,,,,,up,0.468,,0,0.5,550.1847,0,6,6,6,1,stimuli/bead_y.PNG,stimuli/bead_g.PNG,stimuli/bead_g.PNG,stimuli/bead_y.PNG,stimuli/bead_y.PNG,2,3,right
,2023-10-02_19h31.18.207,Fish_Game,2023.1.3,MacIntel,60.06006006,,,,,,,,,,,,,8,,,,,,,,,,,,,,up,0.6486,,0,0.5,551.8674,0,7,7,7,1,stimuli/bead_g.PNG,stimuli/bead_y.PNG,stimuli/bead_g.PNG,stimuli/bead_g.PNG,stimuli/bead_y.PNG,2,3,right
,2023-10-02_19h31.18.207,Fish_Game,2023.1.3,MacIntel,60.06006006,,,,,,,,,,,,,9,,,,,,,,,,,,,,right,0.453,,1,1,553.8479,0,8,8,8,1,stimuli/bead_g.PNG,stimuli/bead_g.PNG,stimuli/bead_y.PNG,stimuli/bead_g.PNG,stimuli/bead_g.PNG,2,3,right
,2023-10-02_19h31.18.207,Fish_Game,2023.1.3,MacIntel,60.06006006,,,,,,,,,,,,,10,,,,,,,,,,,,,,right,0.35,,1,1.5,556.2311,0,9,9,9,1,stimuli/bead_g.PNG,stimuli/bead_g.PNG,stimuli/bead_g.PNG,stimuli/bead_y.PNG,stimuli/bead_g.PNG,2,3,right
,2023-10-02_19h31.18.207,Fish_Game,2023.1.3,MacIntel,60.06006006,,,,,,,,,,,,,11,,,,,,,,,,,,,,right,0.0936,,0,1.5,558.3312,0,10,10,10,1,stimuli/bead_y.PNG,stimuli/bead_g.PNG,stimuli/bead_g.PNG,stimuli/bead_g.PNG,stimuli/bead_y.PNG,1,2,up
,2023-10-02_19h31.18.207,Fish_Game,2023.1.3,MacIntel,60.06006006,,,,,,,,,,,,,12,,,,,,,,,,,,,,right,0.4254,,0,1.5,560.7786,0,11,11,11,1,stimuli/bead_b.PNG,stimuli/bead_y.PNG,stimuli/bead_g.PNG,stimuli/bead_g.PNG,stimuli/bead_g.PNG,1,2,up
,2023-10-02_19h31.18.207,Fish_Game,2023.1.3,MacIntel,60.06006006,,,,,,,,,,,,,13,,,,,,,,,,,,,,up,1.5878,,1,0.5,563.3917,0,12,12,12,1,stimuli/bead_y.PNG,stimuli/bead_b.PNG,stimuli/bead_y.PNG,stimuli/bead_g.PNG,stimuli/bead_g.PNG,1,2,up
,2023-10-02_19h31.18.207,Fish_Game,2023.1.3,MacIntel,60.06006006,,,,,,,,,,,,,14,,,,,,,,,,,,,,up,0.6805,,1,1,565.5909,0,13,13,13,1,stimuli/bead_y.PNG,stimuli/bead_y.PNG,stimuli/bead_b.PNG,stimuli/bead_y.PNG,stimuli/bead_g.PNG,1,2,up
,2023-10-02_19h31.18.207,Fish_Game,2023.1.3,MacIntel,60.06006006,,,,,,,,,,,,,15,,,,,,,,,,,,,,up,0.4438,,1,0.5,567.0566,0,14,14,14,1,stimuli/bead_y.PNG,stimuli/bead_y.PNG,stimuli/bead_y.PNG,stimuli/bead_b.PNG,stimuli/bead_y.PNG,1,2,up
