participant,date,expName,psychopyVersion,OS,frameRate,ins1_key.keys,ins1_key.rt,ins1_key.duration,key_resp_2.keys,key_resp_2.rt,key_resp_2.duration,fish_key_2.corr,prac_trials.thisRepN,prac_trials.thisTrialN,prac_trials.thisN,prac_trials.thisIndex,prac_trials.ran,trial,fish1_p,fish2_p,fish3_p,fish4_p,fish5_p,pond_p,pond_p2,pond_p3,ExpStart_key.keys,ExpStart_key.rt,ExpStart_key.duration,fish_key_button.keys,fish_key_button.rt,fish_key_button.duration,fish_key.corr,fish_interval,key_time,trials.thisRepN,trials.thisTrialN,trials.thisN,trials.thisIndex,trials.ran,fish1,fish2,fish3,fish4,fish5,pond,pond2,pond3
,2023-09-28_11h12.28.970,Fish_Game,2023.1.3,MacIntel,60.06006006,,,,,,,,,,,,,,,,,,,,,,,,,,,,,,,,,,,,,,,,,,,
,2023-09-28_11h12.28.970,Fish_Game,2023.1.3,MacIntel,60.06006006,space,1.2269,,,,,,,,,,,,,,,,,,,,,,,,,,,,,,,,,,,,,,,,,
,2023-09-28_11h12.28.970,Fish_Game,2023.1.3,MacIntel,60.06006006,,,,,,,,,,,,,,,,,,,,,,,,,,,,,,,,,,,,,,,,,,,
,2023-09-28_11h12.28.970,Fish_Game,2023.1.3,MacIntel,60.06006006,,,,,,,,,,,,,,,,,,,,,,,,,,,,,,,,,,,,,,,,,,,
,2023-09-28_11h12.28.970,Fish_Game,2023.1.3,MacIntel,60.06006006,,,,left,0.6292,,1,0,0,0,0,1,1,stimuli/bead_b.PNG,stimuli/blank.jpg,stimuli/blank.jpg,stimuli/blank.jpg,stimuli/blank.jpg,0,1,left,,,,,,,,,,,,,,,,,,,,,,
,2023-09-28_11h12.28.970,Fish_Game,2023.1.3,MacIntel,60.06006006,,,,left,0.3681,,1,0,1,1,1,1,2,stimuli/bead_b.PNG,stimuli/bead_b.PNG,stimuli/blank.jpg,stimuli/blank.jpg,stimuli/blank.jpg,0,1,left,,,,,,,,,,,,,,,,,,,,,,
,2023-09-28_11h12.28.970,Fish_Game,2023.1.3,MacIntel,60.06006006,,,,left,0.5998,,1,0,2,2,2,1,3,stimuli/bead_g.PNG,stimuli/bead_b.PNG,stimuli/bead_b.PNG,stimuli/blank.jpg,stimuli/blank.jpg,0,1,left,,,,,,,,,,,,,,,,,,,,,,
,2023-09-28_11h12.28.970,Fish_Game,2023.1.3,MacIntel,60.06006006,,,,left,0.3456,,1,0,3,3,3,1,4,stimuli/bead_b.PNG,stimuli/bead_g.PNG,stimuli/bead_b.PNG,stimuli/bead_b.PNG,stimuli/blank.jpg,0,1,left,,,,,,,,,,,,,,,,,,,,,,
,2023-09-28_11h12.28.970,Fish_Game,2023.1.3,MacIntel,60.06006006,,,,left,0.454,,1,0,4,4,4,1,5,stimuli/bead_b.PNG,stimuli/bead_b.PNG,stimuli/bead_g.PNG,stimuli/bead_b.PNG,stimuli/bead_b.PNG,0,1,left,,,,,,,,,,,,,,,,,,,,,,
,2023-09-28_11h12.28.970,Fish_Game,2023.1.3,MacIntel,60.06006006,,,,left,0.3648,,1,0,5,5,5,1,6,stimuli/bead_y.PNG,stimuli/bead_b.PNG,stimuli/bead_b.PNG,stimuli/bead_g.PNG,stimuli/bead_b.PNG,0,1,left,,,,,,,,,,,,,,,,,,,,,,
,2023-09-28_11h12.28.970,Fish_Game,2023.1.3,MacIntel,60.06006006,,,,left,0.5091,,1,0,6,6,6,1,7,stimuli/bead_b.PNG,stimuli/bead_y.PNG,stimuli/bead_b.PNG,stimuli/bead_b.PNG,stimuli/bead_g.PNG,0,1,left,,,,,,,,,,,,,,,,,,,,,,
,2023-09-28_11h12.28.970,Fish_Game,2023.1.3,MacIntel,60.06006006,,,,left,0.357,,0,0,7,7,7,1,8,stimuli/bead_y.PNG,stimuli/bead_b.PNG,stimuli/bead_y.PNG,stimuli/bead_b.PNG,stimuli/bead_b.PNG,1,2,up,,,,,,,,,,,,,,,,,,,,,,
,2023-09-28_11h12.28.970,Fish_Game,2023.1.3,MacIntel,60.06006006,,,,up,0.2905,,1,0,8,8,8,1,9,stimuli/bead_y.PNG,stimuli/bead_y.PNG,stimuli/bead_b.PNG,stimuli/bead_y.PNG,stimuli/bead_b.PNG,1,2,up,,,,,,,,,,,,,,,,,,,,,,
,2023-09-28_11h12.28.970,Fish_Game,2023.1.3,MacIntel,60.06006006,,,,up,0.341,,1,0,9,9,9,1,10,stimuli/bead_b.PNG,stimuli/bead_y.PNG,stimuli/bead_y.PNG,stimuli/bead_b.PNG,stimuli/bead_y.PNG,1,2,up,,,,,,,,,,,,,,,,,,,,,,
,2023-09-28_11h12.28.970,Fish_Game,2023.1.3,MacIntel,60.06006006,,,,up,0.5042,,1,0,10,10,10,1,11,stimuli/bead_y.PNG,stimuli/bead_b.PNG,stimuli/bead_y.PNG,stimuli/bead_y.PNG,stimuli/bead_b.PNG,1,2,up,,,,,,,,,,,,,,,,,,,,,,
,2023-09-28_11h12.28.970,Fish_Game,2023.1.3,MacIntel,60.06006006,,,,up,0.2549,,1,0,11,11,11,1,12,stimuli/bead_y.PNG,stimuli/bead_y.PNG,stimuli/bead_b.PNG,stimuli/bead_y.PNG,stimuli/bead_y.PNG,1,2,up,,,,,,,,,,,,,,,,,,,,,,
,2023-09-28_11h12.28.970,Fish_Game,2023.1.3,MacIntel,60.06006006,,,,up,0.3013,,1,0,12,12,12,1,13,stimuli/bead_b.PNG,stimuli/bead_y.PNG,stimuli/bead_y.PNG,stimuli/bead_b.PNG,stimuli/bead_y.PNG,1,2,up,,,,,,,,,,,,,,,,,,,,,,
,2023-09-28_11h12.28.970,Fish_Game,2023.1.3,MacIntel,60.06006006,,,,up,0.502,,1,0,13,13,13,1,14,stimuli/bead_y.PNG,stimuli/bead_b.PNG,stimuli/bead_y.PNG,stimuli/bead_y.PNG,stimuli/bead_b.PNG,1,2,up,,,,,,,,,,,,,,,,,,,,,,
,2023-09-28_11h12.28.970,Fish_Game,2023.1.3,MacIntel,60.06006006,,,,up,0.306,,1,0,14,14,14,1,15,stimuli/bead_y.PNG,stimuli/bead_y.PNG,stimuli/bead_b.PNG,stimuli/bead_y.PNG,stimuli/bead_y.PNG,1,2,up,,,,,,,,,,,,,,,,,,,,,,
,2023-09-28_11h12.28.970,Fish_Game,2023.1.3,MacIntel,60.06006006,,,,,,,,,,,,,,,,,,,,,,space,7.2834,,,,,,,,,,,,,,,,,,,,
,2023-09-28_11h12.28.970,Fish_Game,2023.1.3,MacIntel,60.06006006,,,,,,,,,,,,,1,,,,,,,,,,,,right,0.6537,,1,0.5,9/28/23,0,0,0,0,1,stimuli/bead_g.PNG,stimuli/blank.jpg,stimuli/blank.jpg,stimuli/blank.jpg,stimuli/blank.jpg,2,3,right
,2023-09-28_11h12.28.970,Fish_Game,2023.1.3,MacIntel,60.06006006,,,,,,,,,,,,,2,,,,,,,,,,,,right,0.5695,,1,1.5,9/28/23,0,1,1,1,1,stimuli/bead_y.PNG,stimuli/bead_g.PNG,stimuli/blank.jpg,stimuli/blank.jpg,stimuli/blank.jpg,2,3,right
,2023-09-28_11h12.28.970,Fish_Game,2023.1.3,MacIntel,60.06006006,,,,,,,,,,,,,3,,,,,,,,,,,,right,0.4106,,1,1,9/28/23,0,2,2,2,1,stimuli/bead_g.PNG,stimuli/bead_y.PNG,stimuli/bead_g.PNG,stimuli/blank.jpg,stimuli/blank.jpg,2,3,right
,2023-09-28_11h12.28.970,Fish_Game,2023.1.3,MacIntel,60.06006006,,,,,,,,,,,,,4,,,,,,,,,,,,,,,,1,9/28/23,0,3,3,3,1,stimuli/bead_b.PNG,stimuli/bead_g.PNG,stimuli/bead_y.PNG,stimuli/bead_g.PNG,stimuli/blank.jpg,2,3,right
,2023-09-28_11h12.28.970,Fish_Game,2023.1.3,MacIntel,60.06006006,,,,,,,,,,,,,5,,,,,,,,,,,,,,,,0.5,9/28/23,0,4,4,4,1,stimuli/bead_g.PNG,stimuli/bead_b.PNG,stimuli/bead_g.PNG,stimuli/bead_y.PNG,stimuli/bead_g.PNG,2,3,right
,2023-09-28_11h12.28.970,Fish_Game,2023.1.3,MacIntel,60.06006006,,,,,,,,,,,,,6,,,,,,,,,,,,,,,,1.5,9/28/23,0,5,5,5,1,stimuli/bead_g.PNG,stimuli/bead_g.PNG,stimuli/bead_b.PNG,stimuli/bead_g.PNG,stimuli/bead_y.PNG,2,3,right
,2023-09-28_11h12.28.970,Fish_Game,2023.1.3,MacIntel,60.06006006,,,,,,,,,,,,,7,,,,,,,,,,,,,,,,1.5,9/28/23,0,6,6,6,1,stimuli/bead_g.PNG,stimuli/bead_g.PNG,stimuli/bead_g.PNG,stimuli/bead_b.PNG,stimuli/bead_g.PNG,2,3,right
,2023-09-28_11h12.28.970,Fish_Game,2023.1.3,MacIntel,60.06006006,,,,,,,,,,,,,8,,,,,,,,,,,,,,,,1,9/28/23,0,7,7,7,1,stimuli/bead_g.PNG,stimuli/bead_g.PNG,stimuli/bead_g.PNG,stimuli/bead_g.PNG,stimuli/bead_b.PNG,2,3,right
,2023-09-28_11h12.28.970,Fish_Game,2023.1.3,MacIntel,60.06006006,,,,,,,,,,,,,9,,,,,,,,,,,,,,,,1.5,9/28/23,0,8,8,8,1,stimuli/bead_b.PNG,stimuli/bead_g.PNG,stimuli/bead_g.PNG,stimuli/bead_g.PNG,stimuli/bead_g.PNG,2,3,right
,2023-09-28_11h12.28.970,Fish_Game,2023.1.3,MacIntel,60.06006006,,,,,,,,,,,,,10,,,,,,,,,,,,,,,,0.5,9/28/23,0,9,9,9,1,stimuli/bead_g.PNG,stimuli/bead_b.PNG,stimuli/bead_g.PNG,stimuli/bead_g.PNG,stimuli/bead_g.PNG,2,3,right
,2023-09-28_11h12.28.970,Fish_Game,2023.1.3,MacIntel,60.06006006,,,,,,,,,,,,,11,,,,,,,,,,,,,,,,1,9/28/23,0,10,10,10,1,stimuli/bead_g.PNG,stimuli/bead_g.PNG,stimuli/bead_b.PNG,stimuli/bead_g.PNG,stimuli/bead_g.PNG,2,3,right
,2023-09-28_11h12.28.970,Fish_Game,2023.1.3,MacIntel,60.06006006,,,,,,,,,,,,,12,,,,,,,,,,,,,,,,0.5,9/28/23,0,11,11,11,1,stimuli/bead_g.PNG,stimuli/bead_g.PNG,stimuli/bead_g.PNG,stimuli/bead_b.PNG,stimuli/bead_g.PNG,2,3,right
,2023-09-28_11h12.28.970,Fish_Game,2023.1.3,MacIntel,60.06006006,,,,,,,,,,,,,13,,,,,,,,,,,,,,,,0.5,9/28/23,0,12,12,12,1,stimuli/bead_b.PNG,stimuli/bead_g.PNG,stimuli/bead_g.PNG,stimuli/bead_g.PNG,stimuli/bead_b.PNG,0,1,left
,2023-09-28_11h12.28.970,Fish_Game,2023.1.3,MacIntel,60.06006006,,,,,,,,,,,,,14,,,,,,,,,,,,,,,,1,9/28/23,0,13,13,13,1,stimuli/bead_b.PNG,stimuli/bead_b.PNG,stimuli/bead_g.PNG,stimuli/bead_g.PNG,stimuli/bead_g.PNG,0,1,left
,2023-09-28_11h12.28.970,Fish_Game,2023.1.3,MacIntel,60.06006006,,,,,,,,,,,,,15,,,,,,,,,,,,,,,,1.5,9/28/23,0,14,14,14,1,stimuli/bead_b.PNG,stimuli/bead_b.PNG,stimuli/bead_b.PNG,stimuli/bead_g.PNG,stimuli/bead_g.PNG,0,1,left
,2023-09-28_11h12.28.970,Fish_Game,2023.1.3,MacIntel,60.06006006,,,,,,,,,,,,,1,,,,,,,,,,,,right,2.7464,,1,1,9/28/23,0,0,0,0,1,stimuli/bead_g.PNG,stimuli/blank.jpg,stimuli/blank.jpg,stimuli/blank.jpg,stimuli/blank.jpg,2,3,right
,2023-09-28_11h12.28.970,Fish_Game,2023.1.3,MacIntel,60.06006006,,,,,,,,,,,,,2,,,,,,,,,,,,right,0.4179,,1,1,9/28/23,0,1,1,1,1,stimuli/bead_g.PNG,stimuli/bead_g.PNG,stimuli/blank.jpg,stimuli/blank.jpg,stimuli/blank.jpg,2,3,right
,2023-09-28_11h12.28.970,Fish_Game,2023.1.3,MacIntel,60.06006006,,,,,,,,,,,,,3,,,,,,,,,,,,right,0.4017,,1,1.5,9/28/23,0,2,2,2,1,stimuli/bead_b.PNG,stimuli/bead_g.PNG,stimuli/bead_g.PNG,stimuli/blank.jpg,stimuli/blank.jpg,2,3,right
,2023-09-28_11h12.28.970,Fish_Game,2023.1.3,MacIntel,60.06006006,,,,,,,,,,,,,4,,,,,,,,,,,,right,0.3529,,1,1.5,9/28/23,0,3,3,3,1,stimuli/bead_g.PNG,stimuli/bead_b.PNG,stimuli/bead_g.PNG,stimuli/bead_g.PNG,stimuli/blank.jpg,2,3,right
,2023-09-28_11h12.28.970,Fish_Game,2023.1.3,MacIntel,60.06006006,,,,,,,,,,,,,5,,,,,,,,,,,,right,0.4816,,1,1,9/28/23,0,4,4,4,1,stimuli/bead_g.PNG,stimuli/bead_g.PNG,stimuli/bead_b.PNG,stimuli/bead_g.PNG,stimuli/bead_g.PNG,2,3,right
,2023-09-28_11h12.28.970,Fish_Game,2023.1.3,MacIntel,60.06006006,,,,,,,,,,,,,6,,,,,,,,,,,,,,,,1.5,9/28/23,0,5,5,5,1,stimuli/bead_b.PNG,stimuli/bead_g.PNG,stimuli/bead_g.PNG,stimuli/bead_b.PNG,stimuli/bead_g.PNG,2,3,right
,2023-09-28_11h12.28.970,Fish_Game,2023.1.3,MacIntel,60.06006006,,,,,,,,,,,,,7,,,,,,,,,,,,right,2.1401,,1,0.5,9/28/23,0,6,6,6,1,stimuli/bead_g.PNG,stimuli/bead_b.PNG,stimuli/bead_g.PNG,stimuli/bead_g.PNG,stimuli/bead_b.PNG,2,3,right
,2023-09-28_11h12.28.970,Fish_Game,2023.1.3,MacIntel,60.06006006,,,,,,,,,,,,,8,,,,,,,,,,,,right,1.259,,1,0.5,9/28/23,0,7,7,7,1,stimuli/bead_g.PNG,stimuli/bead_g.PNG,stimuli/bead_b.PNG,stimuli/bead_g.PNG,stimuli/bead_g.PNG,2,3,right
,2023-09-28_11h12.28.970,Fish_Game,2023.1.3,MacIntel,60.06006006,,,,,,,,,,,,,9,,,,,,,,,,,,right,0.3225,,0,1.5,9/28/23,0,8,8,8,1,stimuli/bead_b.PNG,stimuli/bead_g.PNG,stimuli/bead_g.PNG,stimuli/bead_b.PNG,stimuli/bead_g.PNG,0,1,left
,2023-09-28_11h12.28.970,Fish_Game,2023.1.3,MacIntel,60.06006006,,,,,,,,,,,,,10,,,,,,,,,,,,,,,,1,9/28/23,0,9,9,9,1,stimuli/bead_y.PNG,stimuli/bead_b.PNG,stimuli/bead_g.PNG,stimuli/bead_g.PNG,stimuli/bead_b.PNG,0,1,left
,2023-09-28_11h12.28.970,Fish_Game,2023.1.3,MacIntel,60.06006006,,,,,,,,,,,,,11,,,,,,,,,,,,,,,,1,9/28/23,0,10,10,10,1,stimuli/bead_b.PNG,stimuli/bead_y.PNG,stimuli/bead_b.PNG,stimuli/bead_g.PNG,stimuli/bead_g.PNG,0,1,left
,2023-09-28_11h12.28.970,Fish_Game,2023.1.3,MacIntel,60.06006006,,,,,,,,,,,,,12,,,,,,,,,,,,left,2.3875,,1,1.5,9/28/23,0,11,11,11,1,stimuli/bead_b.PNG,stimuli/bead_b.PNG,stimuli/bead_y.PNG,stimuli/bead_b.PNG,stimuli/bead_g.PNG,0,1,left
,2023-09-28_11h12.28.970,Fish_Game,2023.1.3,MacIntel,60.06006006,,,,,,,,,,,,,13,,,,,,,,,,,,left,0.8893,,1,1.5,9/28/23,0,12,12,12,1,stimuli/bead_b.PNG,stimuli/bead_b.PNG,stimuli/bead_b.PNG,stimuli/bead_y.PNG,stimuli/bead_b.PNG,0,1,left
,2023-09-28_11h12.28.970,Fish_Game,2023.1.3,MacIntel,60.06006006,,,,,,,,,,,,,14,,,,,,,,,,,,left,0.2873,,1,0.5,9/28/23,0,13,13,13,1,stimuli/bead_g.PNG,stimuli/bead_b.PNG,stimuli/bead_b.PNG,stimuli/bead_b.PNG,stimuli/bead_y.PNG,0,1,left
,2023-09-28_11h12.28.970,Fish_Game,2023.1.3,MacIntel,60.06006006,,,,,,,,,,,,,15,,,,,,,,,,,,left,0.4397,,1,1,9/28/23,0,14,14,14,1,stimuli/bead_b.PNG,stimuli/bead_g.PNG,stimuli/bead_b.PNG,stimuli/bead_b.PNG,stimuli/bead_b.PNG,0,1,left
,2023-09-28_11h12.28.970,Fish_Game,2023.1.3,MacIntel,60.06006006,,,,,,,,,,,,,1,,,,,,,,,,,,left,0.5725,,1,0.5,9/28/23,0,0,0,0,1,stimuli/bead_b.PNG,stimuli/blank.jpg,stimuli/blank.jpg,stimuli/blank.jpg,stimuli/blank.jpg,0,1,left
,2023-09-28_11h12.28.970,Fish_Game,2023.1.3,MacIntel,60.06006006,,,,,,,,,,,,,2,,,,,,,,,,,,left,0.7364,,1,0.5,9/28/23,0,1,1,1,1,stimuli/bead_b.PNG,stimuli/bead_b.PNG,stimuli/blank.jpg,stimuli/blank.jpg,stimuli/blank.jpg,0,1,left
,2023-09-28_11h12.28.970,Fish_Game,2023.1.3,MacIntel,60.06006006,,,,,,,,,,,,,3,,,,,,,,,,,,left,0.8705,,1,0.5,9/28/23,0,2,2,2,1,stimuli/bead_y.PNG,stimuli/bead_b.PNG,stimuli/bead_b.PNG,stimuli/blank.jpg,stimuli/blank.jpg,0,1,left
,2023-09-28_11h12.28.970,Fish_Game,2023.1.3,MacIntel,60.06006006,,,,,,,,,,,,,4,,,,,,,,,,,,left,0.2164,,1,1.5,9/28/23,0,3,3,3,1,stimuli/bead_b.PNG,stimuli/bead_y.PNG,stimuli/bead_b.PNG,stimuli/bead_b.PNG,stimuli/blank.jpg,0,1,left
,2023-09-28_11h12.28.970,Fish_Game,2023.1.3,MacIntel,60.06006006,,,,,,,,,,,,,5,,,,,,,,,,,,left,0.3183,,1,1.5,9/28/23,0,4,4,4,1,stimuli/bead_b.PNG,stimuli/bead_b.PNG,stimuli/bead_y.PNG,stimuli/bead_b.PNG,stimuli/bead_b.PNG,0,1,left
,2023-09-28_11h12.28.970,Fish_Game,2023.1.3,MacIntel,60.06006006,,,,,,,,,,,,,6,,,,,,,,,,,,right,0.908,,1,1.5,9/28/23,0,5,5,5,1,stimuli/bead_g.PNG,stimuli/bead_b.PNG,stimuli/bead_b.PNG,stimuli/bead_y.PNG,stimuli/bead_b.PNG,2,3,right
,2023-09-28_11h12.28.970,Fish_Game,2023.1.3,MacIntel,60.06006006,,,,,,,,,,,,,7,,,,,,,,,,,,right,0.3596,,1,1,9/28/23,0,6,6,6,1,stimuli/bead_g.PNG,stimuli/bead_g.PNG,stimuli/bead_b.PNG,stimuli/bead_b.PNG,stimuli/bead_y.PNG,2,2,right
,2023-09-28_11h12.28.970,Fish_Game,2023.1.3,MacIntel,60.06006006,,,,,,,,,,,,,8,,,,,,,,,,,,right,0.3525,,1,1,9/28/23,0,7,7,7,1,stimuli/bead_b.PNG,stimuli/bead_g.PNG,stimuli/bead_g.PNG,stimuli/bead_b.PNG,stimuli/bead_b.PNG,2,2,right
,2023-09-28_11h12.28.970,Fish_Game,2023.1.3,MacIntel,60.06006006,,,,,,,,,,,,,9,,,,,,,,,,,,right,0.3031,,1,1,9/28/23,0,8,8,8,1,stimuli/bead_g.PNG,stimuli/bead_b.PNG,stimuli/bead_g.PNG,stimuli/bead_g.PNG,stimuli/bead_b.PNG,2,2,right
,2023-09-28_11h12.28.970,Fish_Game,2023.1.3,MacIntel,60.06006006,,,,,,,,,,,,,10,,,,,,,,,,,,right,0.3476,,1,1,9/28/23,0,9,9,9,1,stimuli/bead_b.PNG,stimuli/bead_g.PNG,stimuli/bead_b.PNG,stimuli/bead_g.PNG,stimuli/bead_g.PNG,2,2,right
,2023-09-28_11h12.28.970,Fish_Game,2023.1.3,MacIntel,60.06006006,,,,,,,,,,,,,11,,,,,,,,,,,,right,0.4043,,1,0.5,9/28/23,0,10,10,10,1,stimuli/bead_g.PNG,stimuli/bead_b.PNG,stimuli/bead_g.PNG,stimuli/bead_b.PNG,stimuli/bead_g.PNG,2,2,right
,2023-09-28_11h12.28.970,Fish_Game,2023.1.3,MacIntel,60.06006006,,,,,,,,,,,,,12,,,,,,,,,,,,right,0.3554,,1,0.5,9/28/23,0,11,11,11,1,stimuli/bead_g.PNG,stimuli/bead_g.PNG,stimuli/bead_b.PNG,stimuli/bead_g.PNG,stimuli/bead_b.PNG,2,2,right
,2023-09-28_11h12.28.970,Fish_Game,2023.1.3,MacIntel,60.06006006,,,,,,,,,,,,,13,,,,,,,,,,,,,,,,1.5,9/28/23,0,12,12,12,1,stimuli/bead_g.PNG,stimuli/bead_g.PNG,stimuli/bead_g.PNG,stimuli/bead_b.PNG,stimuli/bead_g.PNG,2,3,right
,2023-09-28_11h12.28.970,Fish_Game,2023.1.3,MacIntel,60.06006006,,,,,,,,,,,,,14,,,,,,,,,,,,,,,,1.5,9/28/23,0,13,13,13,1,stimuli/bead_y.PNG,stimuli/bead_g.PNG,stimuli/bead_g.PNG,stimuli/bead_g.PNG,stimuli/bead_b.PNG,2,3,right
,2023-09-28_11h12.28.970,Fish_Game,2023.1.3,MacIntel,60.06006006,,,,,,,,,,,,,15,,,,,,,,,,,,,,,,0.5,9/28/23,0,14,14,14,1,stimuli/bead_g.PNG,stimuli/bead_y.PNG,stimuli/bead_g.PNG,stimuli/bead_g.PNG,stimuli/bead_g.PNG,2,3,right
,2023-09-28_11h12.28.970,Fish_Game,2023.1.3,MacIntel,60.06006006,,,,,,,,,,,,,1,,,,,,,,,,,,,,,,0.5,9/28/23,0,0,0,0,1,stimuli/bead_g.PNG,stimuli/blank.jpg,stimuli/blank.jpg,stimuli/blank.jpg,stimuli/blank.jpg,1,2,up
,2023-09-28_11h12.28.970,Fish_Game,2023.1.3,MacIntel,60.06006006,,,,,,,,,,,,,2,,,,,,,,,,,,,,,,1.5,9/28/23,0,1,1,1,1,stimuli/bead_y.PNG,stimuli/bead_g.PNG,stimuli/blank.jpg,stimuli/blank.jpg,stimuli/blank.jpg,1,2,up
,2023-09-28_11h12.28.970,Fish_Game,2023.1.3,MacIntel,60.06006006,,,,,,,,,,,,,3,,,,,,,,,,,,,,,,1,9/28/23,0,2,2,2,1,stimuli/bead_y.PNG,stimuli/bead_y.PNG,stimuli/bead_g.PNG,stimuli/blank.jpg,stimuli/blank.jpg,1,2,up
,2023-09-28_11h12.28.970,Fish_Game,2023.1.3,MacIntel,60.06006006,,,,,,,,,,,,,4,,,,,,,,,,,,up,1.7065,,1,1.5,9/28/23,0,3,3,3,1,stimuli/bead_y.PNG,stimuli/bead_y.PNG,stimuli/bead_y.PNG,stimuli/bead_g.PNG,stimuli/blank.jpg,1,2,up
,2023-09-28_11h12.28.970,Fish_Game,2023.1.3,MacIntel,60.06006006,,,,,,,,,,,,,5,,,,,,,,,,,,up,0.3203,,0,0.5,9/28/23,0,4,4,4,1,stimuli/bead_g.PNG,stimuli/bead_y.PNG,stimuli/bead_y.PNG,stimuli/bead_y.PNG,stimuli/bead_g.PNG,2,3,right
,2023-09-28_11h12.28.970,Fish_Game,2023.1.3,MacIntel,60.06006006,,,,,,,,,,,,,6,,,,,,,,,,,,up,0.0391,,0,0.5,9/28/23,0,5,5,5,1,stimuli/bead_g.PNG,stimuli/bead_g.PNG,stimuli/bead_y.PNG,stimuli/bead_y.PNG,stimuli/bead_y.PNG,2,3,right
,2023-09-28_11h12.28.970,Fish_Game,2023.1.3,MacIntel,60.06006006,,,,,,,,,,,,,7,,,,,,,,,,,,up,0.1224,,0,0.5,9/28/23,0,6,6,6,1,stimuli/bead_y.PNG,stimuli/bead_g.PNG,stimuli/bead_g.PNG,stimuli/bead_y.PNG,stimuli/bead_y.PNG,2,3,right
,2023-09-28_11h12.28.970,Fish_Game,2023.1.3,MacIntel,60.06006006,,,,,,,,,,,,,8,,,,,,,,,,,,up,0.6752,,0,1.5,9/28/23,0,7,7,7,1,stimuli/bead_g.PNG,stimuli/bead_y.PNG,stimuli/bead_g.PNG,stimuli/bead_g.PNG,stimuli/bead_y.PNG,2,3,right
,2023-09-28_11h12.28.970,Fish_Game,2023.1.3,MacIntel,60.06006006,,,,,,,,,,,,,9,,,,,,,,,,,,up,0.3837,,0,0.5,9/28/23,0,8,8,8,1,stimuli/bead_g.PNG,stimuli/bead_g.PNG,stimuli/bead_y.PNG,stimuli/bead_g.PNG,stimuli/bead_g.PNG,2,3,right
,2023-09-28_11h12.28.970,Fish_Game,2023.1.3,MacIntel,60.06006006,,,,,,,,,,,,,10,,,,,,,,,,,,right,0.8354,,1,1,9/28/23,0,9,9,9,1,stimuli/bead_g.PNG,stimuli/bead_g.PNG,stimuli/bead_g.PNG,stimuli/bead_y.PNG,stimuli/bead_g.PNG,2,3,right
,2023-09-28_11h12.28.970,Fish_Game,2023.1.3,MacIntel,60.06006006,,,,,,,,,,,,,11,,,,,,,,,,,,,,,,0.5,9/28/23,0,10,10,10,1,stimuli/bead_y.PNG,stimuli/bead_g.PNG,stimuli/bead_g.PNG,stimuli/bead_g.PNG,stimuli/bead_y.PNG,1,2,up
,2023-09-28_11h12.28.970,Fish_Game,2023.1.3,MacIntel,60.06006006,,,,,,,,,,,,,12,,,,,,,,,,,,,,,,1.5,9/28/23,0,11,11,11,1,stimuli/bead_b.PNG,stimuli/bead_y.PNG,stimuli/bead_g.PNG,stimuli/bead_g.PNG,stimuli/bead_g.PNG,1,2,up
,2023-09-28_11h12.28.970,Fish_Game,2023.1.3,MacIntel,60.06006006,,,,,,,,,,,,,13,,,,,,,,,,,,,,,,1.5,9/28/23,0,12,12,12,1,stimuli/bead_y.PNG,stimuli/bead_b.PNG,stimuli/bead_y.PNG,stimuli/bead_g.PNG,stimuli/bead_g.PNG,1,2,up
,2023-09-28_11h12.28.970,Fish_Game,2023.1.3,MacIntel,60.06006006,,,,,,,,,,,,,14,,,,,,,,,,,,,,,,1,9/28/23,0,13,13,13,1,stimuli/bead_y.PNG,stimuli/bead_y.PNG,stimuli/bead_b.PNG,stimuli/bead_y.PNG,stimuli/bead_g.PNG,1,2,up
,2023-09-28_11h12.28.970,Fish_Game,2023.1.3,MacIntel,60.06006006,,,,,,,,,,,,,15,,,,,,,,,,,,,,,,1.5,9/28/23,0,14,14,14,1,stimuli/bead_y.PNG,stimuli/bead_y.PNG,stimuli/bead_y.PNG,stimuli/bead_b.PNG,stimuli/bead_y.PNG,1,2,up
,2023-09-28_11h12.28.970,Fish_Game,2023.1.3,MacIntel,60.06006006,,,,,,,,,,,,,1,,,,,,,,,,,,up,0.8958,,1,1,9/28/23,0,0,0,0,1,stimuli/bead_y.PNG,stimuli/blank.jpg,stimuli/blank.jpg,stimuli/blank.jpg,stimuli/blank.jpg,1,2,up
,2023-09-28_11h12.28.970,Fish_Game,2023.1.3,MacIntel,60.06006006,,,,,,,,,,,,,2,,,,,,,,,,,,up,0.4145,,1,1.5,9/28/23,0,1,1,1,1,stimuli/bead_b.PNG,stimuli/bead_y.PNG,stimuli/blank.jpg,stimuli/blank.jpg,stimuli/blank.jpg,1,2,up
,2023-09-28_11h12.28.970,Fish_Game,2023.1.3,MacIntel,60.06006006,,,,,,,,,,,,,3,,,,,,,,,,,,up,0.3711,,1,1,9/28/23,0,2,2,2,1,stimuli/bead_y.PNG,stimuli/bead_b.PNG,stimuli/bead_y.PNG,stimuli/blank.jpg,stimuli/blank.jpg,1,2,up
,2023-09-28_11h12.28.970,Fish_Game,2023.1.3,MacIntel,60.06006006,,,,,,,,,,,,,4,,,,,,,,,,,,,,,,1.5,9/28/23,0,3,3,3,1,stimuli/bead_y.PNG,stimuli/bead_y.PNG,stimuli/bead_b.PNG,stimuli/bead_y.PNG,stimuli/blank.jpg,1,2,up
,2023-09-28_11h12.28.970,Fish_Game,2023.1.3,MacIntel,60.06006006,,,,,,,,,,,,,5,,,,,,,,,,,,,,,,1,9/28/23,0,4,4,4,1,stimuli/bead_g.PNG,stimuli/bead_y.PNG,stimuli/bead_y.PNG,stimuli/bead_b.PNG,stimuli/bead_y.PNG,1,2,up
,2023-09-28_11h12.28.970,Fish_Game,2023.1.3,MacIntel,60.06006006,,,,,,,,,,,,,6,,,,,,,,,,,,,,,,0.5,9/28/23,0,5,5,5,1,stimuli/bead_y.PNG,stimuli/bead_g.PNG,stimuli/bead_y.PNG,stimuli/bead_y.PNG,stimuli/bead_b.PNG,1,2,up
,2023-09-28_11h12.28.970,Fish_Game,2023.1.3,MacIntel,60.06006006,,,,,,,,,,,,,7,,,,,,,,,,,,,,,,1,9/28/23,0,6,6,6,1,stimuli/bead_b.PNG,stimuli/bead_y.PNG,stimuli/bead_g.PNG,stimuli/bead_y.PNG,stimuli/bead_y.PNG,0,1,left
,2023-09-28_11h12.28.970,Fish_Game,2023.1.3,MacIntel,60.06006006,,,,,,,,,,,,,8,,,,,,,,,,,,,,,,1.5,9/28/23,0,7,7,7,1,stimuli/bead_b.PNG,stimuli/bead_b.PNG,stimuli/bead_y.PNG,stimuli/bead_g.PNG,stimuli/bead_y.PNG,0,1,left
,2023-09-28_11h12.28.970,Fish_Game,2023.1.3,MacIntel,60.06006006,,,,,,,,,,,,,9,,,,,,,,,,,,,,,,1.5,9/28/23,0,8,8,8,1,stimuli/bead_y.PNG,stimuli/bead_b.PNG,stimuli/bead_b.PNG,stimuli/bead_y.PNG,stimuli/bead_g.PNG,0,1,left
,2023-09-28_11h12.28.970,Fish_Game,2023.1.3,MacIntel,60.06006006,,,,,,,,,,,,,10,,,,,,,,,,,,,,,,1,9/28/23,0,9,9,9,1,stimuli/bead_b.PNG,stimuli/bead_y.PNG,stimuli/bead_b.PNG,stimuli/bead_b.PNG,stimuli/bead_y.PNG,0,1,left
,2023-09-28_11h12.28.970,Fish_Game,2023.1.3,MacIntel,60.06006006,,,,,,,,,,,,,11,,,,,,,,,,,,,,,,1,9/28/23,0,10,10,10,1,stimuli/bead_b.PNG,stimuli/bead_b.PNG,stimuli/bead_y.PNG,stimuli/bead_b.PNG,stimuli/bead_b.PNG,0,1,left
,2023-09-28_11h12.28.970,Fish_Game,2023.1.3,MacIntel,60.06006006,,,,,,,,,,,,,12,,,,,,,,,,,,,,,,1.5,9/28/23,0,11,11,11,1,stimuli/bead_b.PNG,stimuli/bead_b.PNG,stimuli/bead_b.PNG,stimuli/bead_y.PNG,stimuli/bead_b.PNG,0,1,left
,2023-09-28_11h12.28.970,Fish_Game,2023.1.3,MacIntel,60.06006006,,,,,,,,,,,,,13,,,,,,,,,,,,,,,,1,9/28/23,0,12,12,12,1,stimuli/bead_g.PNG,stimuli/bead_b.PNG,stimuli/bead_b.PNG,stimuli/bead_b.PNG,stimuli/bead_y.PNG,0,1,left
,2023-09-28_11h12.28.970,Fish_Game,2023.1.3,MacIntel,60.06006006,,,,,,,,,,,,,14,,,,,,,,,,,,,,,,1,9/28/23,0,13,13,13,1,stimuli/bead_b.PNG,stimuli/bead_g.PNG,stimuli/bead_b.PNG,stimuli/bead_b.PNG,stimuli/bead_b.PNG,0,1,left
,2023-09-28_11h12.28.970,Fish_Game,2023.1.3,MacIntel,60.06006006,,,,,,,,,,,,,15,,,,,,,,,,,,,,,,0.5,9/28/23,0,14,14,14,1,stimuli/bead_b.PNG,stimuli/bead_b.PNG,stimuli/bead_g.PNG,stimuli/bead_b.PNG,stimuli/bead_b.PNG,0,1,left
,2023-09-28_11h12.28.970,Fish_Game,2023.1.3,MacIntel,60.06006006,,,,,,,,,,,,,1,,,,,,,,,,,,,,,,1.5,9/28/23,0,0,0,0,1,stimuli/bead_g.PNG,stimuli/blank.jpg,stimuli/blank.jpg,stimuli/blank.jpg,stimuli/blank.jpg,2,3,right
,2023-09-28_11h12.28.970,Fish_Game,2023.1.3,MacIntel,60.06006006,,,,,,,,,,,,,2,,,,,,,,,,,,,,,,1,9/28/23,0,1,1,1,1,stimuli/bead_g.PNG,stimuli/bead_g.PNG,stimuli/blank.jpg,stimuli/blank.jpg,stimuli/blank.jpg,2,3,right
,2023-09-28_11h12.28.970,Fish_Game,2023.1.3,MacIntel,60.06006006,,,,,,,,,,,,,3,,,,,,,,,,,,,,,,1.5,9/28/23,0,2,2,2,1,stimuli/bead_b.PNG,stimuli/bead_g.PNG,stimuli/bead_g.PNG,stimuli/blank.jpg,stimuli/blank.jpg,2,3,right
,2023-09-28_11h12.28.970,Fish_Game,2023.1.3,MacIntel,60.06006006,,,,,,,,,,,,,4,,,,,,,,,,,,,,,,0.5,9/28/23,0,3,3,3,1,stimuli/bead_g.PNG,stimuli/bead_b.PNG,stimuli/bead_g.PNG,stimuli/bead_g.PNG,stimuli/blank.jpg,2,3,right
,2023-09-28_11h12.28.970,Fish_Game,2023.1.3,MacIntel,60.06006006,,,,,,,,,,,,,5,,,,,,,,,,,,,,,,1,9/28/23,0,4,4,4,1,stimuli/bead_g.PNG,stimuli/bead_g.PNG,stimuli/bead_b.PNG,stimuli/bead_g.PNG,stimuli/bead_g.PNG,2,3,right
,2023-09-28_11h12.28.970,Fish_Game,2023.1.3,MacIntel,60.06006006,,,,,,,,,,,,,6,,,,,,,,,,,,,,,,1,9/28/23,0,5,5,5,1,stimuli/bead_y.PNG,stimuli/bead_g.PNG,stimuli/bead_g.PNG,stimuli/bead_b.PNG,stimuli/bead_g.PNG,2,3,right
,2023-09-28_11h12.28.970,Fish_Game,2023.1.3,MacIntel,60.06006006,,,,,,,,,,,,,7,,,,,,,,,,,,,,,,0.5,9/28/23,0,6,6,6,1,stimuli/bead_g.PNG,stimuli/bead_y.PNG,stimuli/bead_g.PNG,stimuli/bead_g.PNG,stimuli/bead_b.PNG,2,3,right
,2023-09-28_11h12.28.970,Fish_Game,2023.1.3,MacIntel,60.06006006,,,,,,,,,,,,,8,,,,,,,,,,,,,,,,0.5,9/28/23,0,7,7,7,1,stimuli/bead_y.PNG,stimuli/bead_g.PNG,stimuli/bead_y.PNG,stimuli/bead_g.PNG,stimuli/bead_g.PNG,1,2,up
,2023-09-28_11h12.28.970,Fish_Game,2023.1.3,MacIntel,60.06006006,,,,,,,,,,,,,9,,,,,,,,,,,,,,,,1,9/28/23,0,8,8,8,1,stimuli/bead_y.PNG,stimuli/bead_y.PNG,stimuli/bead_g.PNG,stimuli/bead_y.PNG,stimuli/bead_g.PNG,1,2,up
,2023-09-28_11h12.28.970,Fish_Game,2023.1.3,MacIntel,60.06006006,,,,,,,,,,,,,10,,,,,,,,,,,,,,,,1,9/28/23,0,9,9,9,1,stimuli/bead_g.PNG,stimuli/bead_y.PNG,stimuli/bead_y.PNG,stimuli/bead_g.PNG,stimuli/bead_y.PNG,1,2,up
,2023-09-28_11h12.28.970,Fish_Game,2023.1.3,MacIntel,60.06006006,,,,,,,,,,,,,11,,,,,,,,,,,,,,,,1.5,9/28/23,0,10,10,10,1,stimuli/bead_y.PNG,stimuli/bead_g.PNG,stimuli/bead_y.PNG,stimuli/bead_y.PNG,stimuli/bead_g.PNG,1,2,up
,2023-09-28_11h12.28.970,Fish_Game,2023.1.3,MacIntel,60.06006006,,,,,,,,,,,,,12,,,,,,,,,,,,,,,,1,9/28/23,0,11,11,11,1,stimuli/bead_y.PNG,stimuli/bead_y.PNG,stimuli/bead_g.PNG,stimuli/bead_y.PNG,stimuli/bead_y.PNG,1,2,up
,2023-09-28_11h12.28.970,Fish_Game,2023.1.3,MacIntel,60.06006006,,,,,,,,,,,,,13,,,,,,,,,,,,,,,,0.5,9/28/23,0,12,12,12,1,stimuli/bead_g.PNG,stimuli/bead_y.PNG,stimuli/bead_y.PNG,stimuli/bead_g.PNG,stimuli/bead_y.PNG,1,2,up
,2023-09-28_11h12.28.970,Fish_Game,2023.1.3,MacIntel,60.06006006,,,,,,,,,,,,,14,,,,,,,,,,,,,,,,1,9/28/23,0,13,13,13,1,stimuli/bead_y.PNG,stimuli/bead_g.PNG,stimuli/bead_y.PNG,stimuli/bead_y.PNG,stimuli/bead_g.PNG,1,2,up
,2023-09-28_11h12.28.970,Fish_Game,2023.1.3,MacIntel,60.06006006,,,,,,,,,,,,,15,,,,,,,,,,,,,,,,0.5,9/28/23,0,14,14,14,1,stimuli/bead_y.PNG,stimuli/bead_y.PNG,stimuli/bead_g.PNG,stimuli/bead_y.PNG,stimuli/bead_y.PNG,1,2,up
,2023-09-28_11h12.28.970,Fish_Game,2023.1.3,MacIntel,60.06006006,,,,,,,,,,,,,1,,,,,,,,,,,,,,,,0.5,9/28/23,0,0,0,0,1,stimuli/bead_y.PNG,stimuli/blank.jpg,stimuli/blank.jpg,stimuli/blank.jpg,stimuli/blank.jpg,0,1,left
,2023-09-28_11h12.28.970,Fish_Game,2023.1.3,MacIntel,60.06006006,,,,,,,,,,,,,2,,,,,,,,,,,,,,,,1.5,9/28/23,0,1,1,1,1,stimuli/bead_b.PNG,stimuli/bead_y.PNG,stimuli/blank.jpg,stimuli/blank.jpg,stimuli/blank.jpg,0,1,left
,2023-09-28_11h12.28.970,Fish_Game,2023.1.3,MacIntel,60.06006006,,,,,,,,,,,,,3,,,,,,,,,,,,,,,,1,9/28/23,0,2,2,2,1,stimuli/bead_b.PNG,stimuli/bead_b.PNG,stimuli/bead_y.PNG,stimuli/blank.jpg,stimuli/blank.jpg,0,1,left
,2023-09-28_11h12.28.970,Fish_Game,2023.1.3,MacIntel,60.06006006,,,,,,,,,,,,,4,,,,,,,,,,,,,,,,0.5,9/28/23,0,3,3,3,1,stimuli/bead_b.PNG,stimuli/bead_b.PNG,stimuli/bead_b.PNG,stimuli/bead_y.PNG,stimuli/blank.jpg,0,1,left
,2023-09-28_11h12.28.970,Fish_Game,2023.1.3,MacIntel,60.06006006,,,,,,,,,,,,,5,,,,,,,,,,,,,,,,1.5,9/28/23,0,4,4,4,1,stimuli/bead_b.PNG,stimuli/bead_b.PNG,stimuli/bead_b.PNG,stimuli/bead_b.PNG,stimuli/bead_y.PNG,0,1,left
,2023-09-28_11h12.28.970,Fish_Game,2023.1.3,MacIntel,60.06006006,,,,,,,,,,,,,6,,,,,,,,,,,,,,,,1.5,9/28/23,0,5,5,5,1,stimuli/bead_g.PNG,stimuli/bead_b.PNG,stimuli/bead_b.PNG,stimuli/bead_b.PNG,stimuli/bead_b.PNG,0,1,left
,2023-09-28_11h12.28.970,Fish_Game,2023.1.3,MacIntel,60.06006006,,,,,,,,,,,,,7,,,,,,,,,,,,,,,,0.5,9/28/23,0,6,6,6,1,stimuli/bead_b.PNG,stimuli/bead_g.PNG,stimuli/bead_b.PNG,stimuli/bead_b.PNG,stimuli/bead_b.PNG,0,1,left
,2023-09-28_11h12.28.970,Fish_Game,2023.1.3,MacIntel,60.06006006,,,,,,,,,,,,,8,,,,,,,,,,,,,,,,1,9/28/23,0,7,7,7,1,stimuli/bead_b.PNG,stimuli/bead_b.PNG,stimuli/bead_g.PNG,stimuli/bead_b.PNG,stimuli/bead_b.PNG,0,1,left
,2023-09-28_11h12.28.970,Fish_Game,2023.1.3,MacIntel,60.06006006,,,,,,,,,,,,,9,,,,,,,,,,,,,,,,1,9/28/23,0,8,8,8,1,stimuli/bead_y.PNG,stimuli/bead_b.PNG,stimuli/bead_b.PNG,stimuli/bead_g.PNG,stimuli/bead_b.PNG,0,1,left
,2023-09-28_11h12.28.970,Fish_Game,2023.1.3,MacIntel,60.06006006,,,,,,,,,,,,,10,,,,,,,,,,,,,,,,1,9/28/23,0,9,9,9,1,stimuli/bead_b.PNG,stimuli/bead_y.PNG,stimuli/bead_b.PNG,stimuli/bead_b.PNG,stimuli/bead_g.PNG,0,1,left
,2023-09-28_11h12.28.970,Fish_Game,2023.1.3,MacIntel,60.06006006,,,,,,,,,,,,,11,,,,,,,,,,,,,,,,1,9/28/23,0,10,10,10,1,stimuli/bead_g.PNG,stimuli/bead_b.PNG,stimuli/bead_y.PNG,stimuli/bead_b.PNG,stimuli/bead_b.PNG,2,3,right
,2023-09-28_11h12.28.970,Fish_Game,2023.1.3,MacIntel,60.06006006,,,,,,,,,,,,,12,,,,,,,,,,,,,,,,1.5,9/28/23,0,11,11,11,1,stimuli/bead_b.PNG,stimuli/bead_g.PNG,stimuli/bead_b.PNG,stimuli/bead_y.PNG,stimuli/bead_b.PNG,2,3,right
,2023-09-28_11h12.28.970,Fish_Game,2023.1.3,MacIntel,60.06006006,,,,,,,,,,,,,13,,,,,,,,,,,,,,,,1.5,9/28/23,0,12,12,12,1,stimuli/bead_g.PNG,stimuli/bead_b.PNG,stimuli/bead_g.PNG,stimuli/bead_b.PNG,stimuli/bead_y.PNG,2,3,right
,2023-09-28_11h12.28.970,Fish_Game,2023.1.3,MacIntel,60.06006006,,,,,,,,,,,,,14,,,,,,,,,,,,,,,,1.5,9/28/23,0,13,13,13,1,stimuli/bead_g.PNG,stimuli/bead_g.PNG,stimuli/bead_b.PNG,stimuli/bead_g.PNG,stimuli/bead_b.PNG,2,3,right
,2023-09-28_11h12.28.970,Fish_Game,2023.1.3,MacIntel,60.06006006,,,,,,,,,,,,,15,,,,,,,,,,,,,,,,0.5,9/28/23,0,14,14,14,1,stimuli/bead_g.PNG,stimuli/bead_g.PNG,stimuli/bead_g.PNG,stimuli/bead_b.PNG,stimuli/bead_g.PNG,2,3,right
,2023-09-28_11h12.28.970,Fish_Game,2023.1.3,MacIntel,60.06006006,,,,,,,,,,,,,1,,,,,,,,,,,,,,,,1.5,9/28/23,0,0,0,0,1,stimuli/bead_y.PNG,stimuli/blank.jpg,stimuli/blank.jpg,stimuli/blank.jpg,stimuli/blank.jpg,1,2,up
,2023-09-28_11h12.28.970,Fish_Game,2023.1.3,MacIntel,60.06006006,,,,,,,,,,,,,2,,,,,,,,,,,,,,,,1.5,9/28/23,0,1,1,1,1,stimuli/bead_y.PNG,stimuli/bead_y.PNG,stimuli/blank.jpg,stimuli/blank.jpg,stimuli/blank.jpg,1,2,up
,2023-09-28_11h12.28.970,Fish_Game,2023.1.3,MacIntel,60.06006006,,,,,,,,,,,,,3,,,,,,,,,,,,,,,,1,9/28/23,0,2,2,2,1,stimuli/bead_b.PNG,stimuli/bead_y.PNG,stimuli/bead_y.PNG,stimuli/blank.jpg,stimuli/blank.jpg,1,2,up
,2023-09-28_11h12.28.970,Fish_Game,2023.1.3,MacIntel,60.06006006,,,,,,,,,,,,,4,,,,,,,,,,,,,,,,1.5,9/28/23,0,3,3,3,1,stimuli/bead_y.PNG,stimuli/bead_b.PNG,stimuli/bead_y.PNG,stimuli/bead_y.PNG,stimuli/blank.jpg,1,2,up
,2023-09-28_11h12.28.970,Fish_Game,2023.1.3,MacIntel,60.06006006,,,,,,,,,,,,,5,,,,,,,,,,,,,,,,1,9/28/23,0,4,4,4,1,stimuli/bead_y.PNG,stimuli/bead_y.PNG,stimuli/bead_b.PNG,stimuli/bead_y.PNG,stimuli/bead_y.PNG,1,2,up
,2023-09-28_11h12.28.970,Fish_Game,2023.1.3,MacIntel,60.06006006,,,,,,,,,,,,,6,,,,,,,,,,,,,,,,1.5,9/28/23,0,5,5,5,1,stimuli/bead_y.PNG,stimuli/bead_y.PNG,stimuli/bead_y.PNG,stimuli/bead_b.PNG,stimuli/bead_y.PNG,1,2,up
,2023-09-28_11h12.28.970,Fish_Game,2023.1.3,MacIntel,60.06006006,,,,,,,,,,,,,7,,,,,,,,,,,,,,,,1.5,9/28/23,0,6,6,6,1,stimuli/bead_b.PNG,stimuli/bead_y.PNG,stimuli/bead_y.PNG,stimuli/bead_y.PNG,stimuli/bead_b.PNG,1,2,up
,2023-09-28_11h12.28.970,Fish_Game,2023.1.3,MacIntel,60.06006006,,,,,,,,,,,,,8,,,,,,,,,,,,,,,,1.5,9/28/23,0,7,7,7,1,stimuli/bead_y.PNG,stimuli/bead_b.PNG,stimuli/bead_y.PNG,stimuli/bead_y.PNG,stimuli/bead_y.PNG,1,2,up
,2023-09-28_11h12.28.970,Fish_Game,2023.1.3,MacIntel,60.06006006,,,,,,,,,,,,,9,,,,,,,,,,,,,,,,1,9/28/23,0,8,8,8,1,stimuli/bead_y.PNG,stimuli/bead_y.PNG,stimuli/bead_b.PNG,stimuli/bead_y.PNG,stimuli/bead_y.PNG,1,2,up
,2023-09-28_11h12.28.970,Fish_Game,2023.1.3,MacIntel,60.06006006,,,,,,,,,,,,,10,,,,,,,,,,,,,,,,1.5,9/28/23,0,9,9,9,1,stimuli/bead_g.PNG,stimuli/bead_y.PNG,stimuli/bead_y.PNG,stimuli/bead_b.PNG,stimuli/bead_y.PNG,1,2,up
,2023-09-28_11h12.28.970,Fish_Game,2023.1.3,MacIntel,60.06006006,,,,,,,,,,,,,11,,,,,,,,,,,,,,,,0.5,9/28/23,0,10,10,10,1,stimuli/bead_y.PNG,stimuli/bead_g.PNG,stimuli/bead_y.PNG,stimuli/bead_y.PNG,stimuli/bead_b.PNG,1,2,up
,2023-09-28_11h12.28.970,Fish_Game,2023.1.3,MacIntel,60.06006006,,,,,,,,,,,,,12,,,,,,,,,,,,,,,,0.5,9/28/23,0,11,11,11,1,stimuli/bead_g.PNG,stimuli/bead_y.PNG,stimuli/bead_g.PNG,stimuli/bead_y.PNG,stimuli/bead_y.PNG,1,2,up
,2023-09-28_11h12.28.970,Fish_Game,2023.1.3,MacIntel,60.06006006,,,,,,,,,,,,,13,,,,,,,,,,,,,,,,1.5,9/28/23,0,12,12,12,1,stimuli/bead_y.PNG,stimuli/bead_g.PNG,stimuli/bead_y.PNG,stimuli/bead_g.PNG,stimuli/bead_y.PNG,1,2,up
,2023-09-28_11h12.28.970,Fish_Game,2023.1.3,MacIntel,60.06006006,,,,,,,,,,,,,14,,,,,,,,,,,,,,,,0.5,9/28/23,0,13,13,13,1,stimuli/bead_y.PNG,stimuli/bead_y.PNG,stimuli/bead_g.PNG,stimuli/bead_y.PNG,stimuli/bead_g.PNG,1,2,up
,2023-09-28_11h12.28.970,Fish_Game,2023.1.3,MacIntel,60.06006006,,,,,,,,,,,,,15,,,,,,,,,,,,,,,,1.5,9/28/23,0,14,14,14,1,stimuli/bead_y.PNG,stimuli/bead_y.PNG,stimuli/bead_y.PNG,stimuli/bead_g.PNG,stimuli/bead_y.PNG,1,2,up
,2023-09-28_11h12.28.970,Fish_Game,2023.1.3,MacIntel,60.06006006,,,,,,,,,,,,,1,,,,,,,,,,,,,,,,1,9/28/23,0,0,0,0,1,stimuli/bead_y.PNG,stimuli/blank.jpg,stimuli/blank.jpg,stimuli/blank.jpg,stimuli/blank.jpg,1,2,up
,2023-09-28_11h12.28.970,Fish_Game,2023.1.3,MacIntel,60.06006006,,,,,,,,,,,,,2,,,,,,,,,,,,,,,,0.5,9/28/23,0,1,1,1,1,stimuli/bead_y.PNG,stimuli/bead_y.PNG,stimuli/blank.jpg,stimuli/blank.jpg,stimuli/blank.jpg,1,2,up
,2023-09-28_11h12.28.970,Fish_Game,2023.1.3,MacIntel,60.06006006,,,,,,,,,,,,,3,,,,,,,,,,,,,,,,1,9/28/23,0,2,2,2,1,stimuli/bead_g.PNG,stimuli/bead_y.PNG,stimuli/bead_y.PNG,stimuli/blank.jpg,stimuli/blank.jpg,1,2,up
,2023-09-28_11h12.28.970,Fish_Game,2023.1.3,MacIntel,60.06006006,,,,,,,,,,,,,4,,,,,,,,,,,,,,,,0.5,9/28/23,0,3,3,3,1,stimuli/bead_y.PNG,stimuli/bead_g.PNG,stimuli/bead_y.PNG,stimuli/bead_y.PNG,stimuli/blank.jpg,1,2,up
,2023-09-28_11h12.28.970,Fish_Game,2023.1.3,MacIntel,60.06006006,,,,,,,,,,,,,5,,,,,,,,,,,,,,,,1.5,9/28/23,0,4,4,4,1,stimuli/bead_y.PNG,stimuli/bead_y.PNG,stimuli/bead_g.PNG,stimuli/bead_y.PNG,stimuli/bead_y.PNG,1,2,up
,2023-09-28_11h12.28.970,Fish_Game,2023.1.3,MacIntel,60.06006006,,,,,,,,,,,,,6,,,,,,,,,,,,,,,,1.5,9/28/23,0,5,5,5,1,stimuli/bead_y.PNG,stimuli/bead_y.PNG,stimuli/bead_y.PNG,stimuli/bead_g.PNG,stimuli/bead_y.PNG,1,2,up
,2023-09-28_11h12.28.970,Fish_Game,2023.1.3,MacIntel,60.06006006,,,,,,,,,,,,,7,,,,,,,,,,,,,,,,0.5,9/28/23,0,6,6,6,1,stimuli/bead_b.PNG,stimuli/bead_y.PNG,stimuli/bead_y.PNG,stimuli/bead_y.PNG,stimuli/bead_g.PNG,1,2,up
,2023-09-28_11h12.28.970,Fish_Game,2023.1.3,MacIntel,60.06006006,,,,,,,,,,,,,8,,,,,,,,,,,,,,,,1,9/28/23,0,7,7,7,1,stimuli/bead_y.PNG,stimuli/bead_b.PNG,stimuli/bead_y.PNG,stimuli/bead_y.PNG,stimuli/bead_y.PNG,1,2,up
,2023-09-28_11h12.28.970,Fish_Game,2023.1.3,MacIntel,60.06006006,,,,,,,,,,,,,9,,,,,,,,,,,,,,,,1.5,9/28/23,0,8,8,8,1,stimuli/bead_y.PNG,stimuli/bead_y.PNG,stimuli/bead_b.PNG,stimuli/bead_y.PNG,stimuli/bead_y.PNG,1,2,right
,2023-09-28_11h12.28.970,Fish_Game,2023.1.3,MacIntel,60.06006006,,,,,,,,,,,,,10,,,,,,,,,,,,,,,,1,9/28/23,0,9,9,9,1,stimuli/bead_g.PNG,stimuli/bead_y.PNG,stimuli/bead_y.PNG,stimuli/bead_b.PNG,stimuli/bead_y.PNG,2,3,right
,2023-09-28_11h12.28.970,Fish_Game,2023.1.3,MacIntel,60.06006006,,,,,,,,,,,,,11,,,,,,,,,,,,,,,,0.5,9/28/23,0,10,10,10,1,stimuli/bead_g.PNG,stimuli/bead_g.PNG,stimuli/bead_y.PNG,stimuli/bead_y.PNG,stimuli/bead_b.PNG,2,3,right
,2023-09-28_11h12.28.970,Fish_Game,2023.1.3,MacIntel,60.06006006,,,,,,,,,,,,,12,,,,,,,,,,,,,,,,1,9/28/23,0,11,11,11,1,stimuli/bead_y.PNG,stimuli/bead_g.PNG,stimuli/bead_g.PNG,stimuli/bead_y.PNG,stimuli/bead_y.PNG,2,3,right
,2023-09-28_11h12.28.970,Fish_Game,2023.1.3,MacIntel,60.06006006,,,,,,,,,,,,,13,,,,,,,,,,,,,,,,0.5,9/28/23,0,12,12,12,1,stimuli/bead_g.PNG,stimuli/bead_y.PNG,stimuli/bead_g.PNG,stimuli/bead_g.PNG,stimuli/bead_y.PNG,2,3,right
,2023-09-28_11h12.28.970,Fish_Game,2023.1.3,MacIntel,60.06006006,,,,,,,,,,,,,14,,,,,,,,,,,,,,,,1.5,9/28/23,0,13,13,13,1,stimuli/bead_g.PNG,stimuli/bead_g.PNG,stimuli/bead_y.PNG,stimuli/bead_g.PNG,stimuli/bead_g.PNG,2,3,right
,2023-09-28_11h12.28.970,Fish_Game,2023.1.3,MacIntel,60.06006006,,,,,,,,,,,,,15,,,,,,,,,,,,,,,,1,9/28/23,0,14,14,14,1,stimuli/bead_g.PNG,stimuli/bead_g.PNG,stimuli/bead_g.PNG,stimuli/bead_y.PNG,stimuli/bead_g.PNG,2,3,right
,2023-09-28_11h12.28.970,Fish_Game,2023.1.3,MacIntel,60.06006006,,,,,,,,,,,,,1,,,,,,,,,,,,,,,,1.5,9/28/23,0,0,0,0,1,stimuli/bead_y.PNG,stimuli/blank.jpg,stimuli/blank.jpg,stimuli/blank.jpg,stimuli/blank.jpg,0,1,left
,2023-09-28_11h12.28.970,Fish_Game,2023.1.3,MacIntel,60.06006006,,,,,,,,,,,,,2,,,,,,,,,,,,,,,,1,9/28/23,0,1,1,1,1,stimuli/bead_b.PNG,stimuli/bead_g.PNG,stimuli/blank.jpg,stimuli/blank.jpg,stimuli/blank.jpg,0,1,left
,2023-09-28_11h12.28.970,Fish_Game,2023.1.3,MacIntel,60.06006006,,,,,,,,,,,,,3,,,,,,,,,,,,,,,,1,9/28/23,0,2,2,2,1,stimuli/bead_g.PNG,stimuli/bead_y.PNG,stimuli/bead_g.PNG,stimuli/blank.jpg,stimuli/blank.jpg,0,1,left
,2023-09-28_11h12.28.970,Fish_Game,2023.1.3,MacIntel,60.06006006,,,,,,,,,,,,,4,,,,,,,,,,,,,,,,1,9/28/23,0,3,3,3,1,stimuli/bead_b.PNG,stimuli/bead_y.PNG,stimuli/bead_y.PNG,stimuli/bead_g.PNG,stimuli/blank.jpg,0,1,left
,2023-09-28_11h12.28.970,Fish_Game,2023.1.3,MacIntel,60.06006006,,,,,,,,,,,,,5,,,,,,,,,,,,,,,,1.5,9/28/23,0,4,4,4,1,stimuli/bead_b.PNG,stimuli/bead_y.PNG,stimuli/bead_y.PNG,stimuli/bead_y.PNG,stimuli/bead_g.PNG,0,1,left
,2023-09-28_11h12.28.970,Fish_Game,2023.1.3,MacIntel,60.06006006,,,,,,,,,,,,,6,,,,,,,,,,,,,,,,0.5,9/28/23,0,5,5,5,1,stimuli/bead_b.PNG,stimuli/bead_b.PNG,stimuli/bead_y.PNG,stimuli/bead_y.PNG,stimuli/bead_y.PNG,0,1,left
,2023-09-28_11h12.28.970,Fish_Game,2023.1.3,MacIntel,60.06006006,,,,,,,,,,,,,7,,,,,,,,,,,,,,,,0.5,9/28/23,0,6,6,6,1,stimuli/bead_g.PNG,stimuli/bead_y.PNG,stimuli/bead_b.PNG,stimuli/bead_y.PNG,stimuli/bead_y.PNG,0,1,left
,2023-09-28_11h12.28.970,Fish_Game,2023.1.3,MacIntel,60.06006006,,,,,,,,,,,,,8,,,,,,,,,,,,,,,,1.5,9/28/23,0,7,7,7,1,stimuli/bead_b.PNG,stimuli/bead_y.PNG,stimuli/bead_y.PNG,stimuli/bead_b.PNG,stimuli/bead_y.PNG,0,1,left
,2023-09-28_11h12.28.970,Fish_Game,2023.1.3,MacIntel,60.06006006,,,,,,,,,,,,,9,,,,,,,,,,,,,,,,1.5,9/28/23,0,8,8,8,1,stimuli/bead_y.PNG,stimuli/bead_y.PNG,stimuli/bead_y.PNG,stimuli/bead_y.PNG,stimuli/bead_b.PNG,0,1,left
,2023-09-28_11h12.28.970,Fish_Game,2023.1.3,MacIntel,60.06006006,,,,,,,,,,,,,10,,,,,,,,,,,,,,,,1.5,9/28/23,0,9,9,9,1,stimuli/bead_b.PNG,stimuli/bead_y.PNG,stimuli/bead_y.PNG,stimuli/bead_y.PNG,stimuli/bead_y.PNG,0,1,left
,2023-09-28_11h12.28.970,Fish_Game,2023.1.3,MacIntel,60.06006006,,,,,,,,,,,,,11,,,,,,,,,,,,,,,,0.5,9/28/23,0,10,10,10,1,stimuli/bead_b.PNG,stimuli/bead_b.PNG,stimuli/bead_y.PNG,stimuli/bead_y.PNG,stimuli/bead_y.PNG,0,1,left
,2023-09-28_11h12.28.970,Fish_Game,2023.1.3,MacIntel,60.06006006,,,,,,,,,,,,,12,,,,,,,,,,,,,,,,0.5,9/28/23,0,11,11,11,1,stimuli/bead_y.PNG,stimuli/bead_y.PNG,stimuli/bead_b.PNG,stimuli/bead_y.PNG,stimuli/bead_y.PNG,1,2,up
,2023-09-28_11h12.28.970,Fish_Game,2023.1.3,MacIntel,60.06006006,,,,,,,,,,,,,13,,,,,,,,,,,,,,,,1.5,9/28/23,0,12,12,12,1,stimuli/bead_y.PNG,stimuli/bead_y.PNG,stimuli/bead_y.PNG,stimuli/bead_b.PNG,stimuli/bead_y.PNG,1,2,up
,2023-09-28_11h12.28.970,Fish_Game,2023.1.3,MacIntel,60.06006006,,,,,,,,,,,,,14,,,,,,,,,,,,,,,,1,9/28/23,0,13,13,13,1,stimuli/bead_y.PNG,stimuli/bead_g.PNG,stimuli/bead_y.PNG,stimuli/bead_y.PNG,stimuli/bead_b.PNG,1,2,up
,2023-09-28_11h12.28.970,Fish_Game,2023.1.3,MacIntel,60.06006006,,,,,,,,,,,,,15,,,,,,,,,,,,,,,,1,9/28/23,0,14,14,14,1,stimuli/bead_g.PNG,stimuli/bead_g.PNG,stimuli/bead_g.PNG,stimuli/bead_y.PNG,stimuli/bead_y.PNG,1,2,up
,2023-09-28_11h12.28.970,Fish_Game,2023.1.3,MacIntel,60.06006006,,,,,,,,,,,,,,,,,,,,,,,,,,,,,,,,,,,,,,,,,,,
