welcome_key.keys,welcome_key.rt,welcome_key.duration,participant,date,expName,psychopyVersion,OS,frameRate,ins1_key.keys,ins1_key.rt,ins1_key.duration,key_resp_2.keys,key_resp_2.rt,key_resp_2.duration,fish_key_2.corr,prac_trials.thisRepN,prac_trials.thisTrialN,prac_trials.thisN,prac_trials.thisIndex,prac_trials.ran,trial,fish1_p,fish2_p,fish3_p,fish4_p,fish5_p,pond_p,pond_p2,pond_p3,ExpStart_key.keys,ExpStart_key.rt,ExpStart_key.duration,block number,block assignment,fish_key_button.keys,fish_key_button.rt,fish_key_button.duration,fish_key.corr,fish_interval,key_resp_time,trials.thisRepN,trials.thisTrialN,trials.thisN,trials.thisIndex,trials.ran,fish1,fish2,fish3,fish4,fish5,pond,pond2,pond3
space,1.9939,,,2023-10-06_15h59.02.581,Fish_Game,2023.1.3,MacIntel,60.0024001,,,,,,,,,,,,,,,,,,,,,,,,,,,,,,,,,,,,,,,,,,,,,
,,,,2023-10-06_15h59.02.581,Fish_Game,2023.1.3,MacIntel,60.0024001,,,,,,,,,,,,,,,,,,,,,,,,,,,,,,,,,,,,,,,,,,,,,
,,,,2023-10-06_15h59.02.581,Fish_Game,2023.1.3,MacIntel,60.0024001,space,50369.362,,,,,,,,,,,,,,,,,,,,,,,,,,,,,,,,,,,,,,,,,,,
,,,,2023-10-06_15h59.02.581,Fish_Game,2023.1.3,MacIntel,60.0024001,,,,,,,,,,,,,,,,,,,,,,,,,,,,,,,,,,,,,,,,,,,,,
,,,,2023-10-06_15h59.02.581,Fish_Game,2023.1.3,MacIntel,60.0024001,,,,,,,,,,,,,,,,,,,,,,,,,,,,,,,,,,,,,,,,,,,,,
,,,,2023-10-06_15h59.02.581,Fish_Game,2023.1.3,MacIntel,60.0024001,,,,left,0.8492,,1,0,0,0,0,1,1,stimuli/bead_b.PNG,stimuli/blank.jpg,stimuli/blank.jpg,stimuli/blank.jpg,stimuli/blank.jpg,0,1,left,,,,,,,,,,,,,,,,,,,,,,,,
,,,,2023-10-06_15h59.02.581,Fish_Game,2023.1.3,MacIntel,60.0024001,,,,left,0.6306,,1,0,1,1,1,1,2,stimuli/bead_b.PNG,stimuli/bead_b.PNG,stimuli/blank.jpg,stimuli/blank.jpg,stimuli/blank.jpg,0,1,left,,,,,,,,,,,,,,,,,,,,,,,,
,,,,2023-10-06_15h59.02.581,Fish_Game,2023.1.3,MacIntel,60.0024001,,,,left,0.4814,,1,0,2,2,2,1,3,stimuli/bead_g.PNG,stimuli/bead_b.PNG,stimuli/bead_b.PNG,stimuli/blank.jpg,stimuli/blank.jpg,0,1,left,,,,,,,,,,,,,,,,,,,,,,,,
,,,,2023-10-06_15h59.02.581,Fish_Game,2023.1.3,MacIntel,60.0024001,,,,left,0.4437,,1,0,3,3,3,1,4,stimuli/bead_b.PNG,stimuli/bead_g.PNG,stimuli/bead_b.PNG,stimuli/bead_b.PNG,stimuli/blank.jpg,0,1,left,,,,,,,,,,,,,,,,,,,,,,,,
,,,,2023-10-06_15h59.02.581,Fish_Game,2023.1.3,MacIntel,60.0024001,,,,left,0.427,,1,0,4,4,4,1,5,stimuli/bead_b.PNG,stimuli/bead_b.PNG,stimuli/bead_g.PNG,stimuli/bead_b.PNG,stimuli/bead_b.PNG,0,1,left,,,,,,,,,,,,,,,,,,,,,,,,
,,,,2023-10-06_15h59.02.581,Fish_Game,2023.1.3,MacIntel,60.0024001,,,,left,1.0792,,1,0,5,5,5,1,6,stimuli/bead_y.PNG,stimuli/bead_b.PNG,stimuli/bead_b.PNG,stimuli/bead_g.PNG,stimuli/bead_b.PNG,0,1,left,,,,,,,,,,,,,,,,,,,,,,,,
,,,,2023-10-06_15h59.02.581,Fish_Game,2023.1.3,MacIntel,60.0024001,,,,left,0.4322,,1,0,6,6,6,1,7,stimuli/bead_b.PNG,stimuli/bead_y.PNG,stimuli/bead_b.PNG,stimuli/bead_b.PNG,stimuli/bead_g.PNG,0,1,left,,,,,,,,,,,,,,,,,,,,,,,,
,,,,2023-10-06_15h59.02.581,Fish_Game,2023.1.3,MacIntel,60.0024001,,,,left,0.6019,,0,0,7,7,7,1,8,stimuli/bead_y.PNG,stimuli/bead_b.PNG,stimuli/bead_y.PNG,stimuli/bead_b.PNG,stimuli/bead_b.PNG,1,2,up,,,,,,,,,,,,,,,,,,,,,,,,
,,,,2023-10-06_15h59.02.581,Fish_Game,2023.1.3,MacIntel,60.0024001,,,,up,0.1375,,1,0,8,8,8,1,9,stimuli/bead_y.PNG,stimuli/bead_y.PNG,stimuli/bead_b.PNG,stimuli/bead_y.PNG,stimuli/bead_b.PNG,1,2,up,,,,,,,,,,,,,,,,,,,,,,,,
,,,,2023-10-06_15h59.02.581,Fish_Game,2023.1.3,MacIntel,60.0024001,,,,up,0.4776,,1,0,9,9,9,1,10,stimuli/bead_b.PNG,stimuli/bead_y.PNG,stimuli/bead_y.PNG,stimuli/bead_b.PNG,stimuli/bead_y.PNG,1,2,up,,,,,,,,,,,,,,,,,,,,,,,,
,,,,2023-10-06_15h59.02.581,Fish_Game,2023.1.3,MacIntel,60.0024001,,,,up,0.4142,,1,0,10,10,10,1,11,stimuli/bead_y.PNG,stimuli/bead_b.PNG,stimuli/bead_y.PNG,stimuli/bead_y.PNG,stimuli/bead_b.PNG,1,2,up,,,,,,,,,,,,,,,,,,,,,,,,
,,,,2023-10-06_15h59.02.581,Fish_Game,2023.1.3,MacIntel,60.0024001,,,,up,0.4558,,1,0,11,11,11,1,12,stimuli/bead_y.PNG,stimuli/bead_y.PNG,stimuli/bead_b.PNG,stimuli/bead_y.PNG,stimuli/bead_y.PNG,1,2,up,,,,,,,,,,,,,,,,,,,,,,,,
,,,,2023-10-06_15h59.02.581,Fish_Game,2023.1.3,MacIntel,60.0024001,,,,up,0.1767,,1,0,12,12,12,1,13,stimuli/bead_b.PNG,stimuli/bead_y.PNG,stimuli/bead_y.PNG,stimuli/bead_b.PNG,stimuli/bead_y.PNG,1,2,up,,,,,,,,,,,,,,,,,,,,,,,,
,,,,2023-10-06_15h59.02.581,Fish_Game,2023.1.3,MacIntel,60.0024001,,,,up,0.0371,,1,0,13,13,13,1,14,stimuli/bead_y.PNG,stimuli/bead_b.PNG,stimuli/bead_y.PNG,stimuli/bead_y.PNG,stimuli/bead_b.PNG,1,2,up,,,,,,,,,,,,,,,,,,,,,,,,
,,,,2023-10-06_15h59.02.581,Fish_Game,2023.1.3,MacIntel,60.0024001,,,,up,0.3726,,1,0,14,14,14,1,15,stimuli/bead_y.PNG,stimuli/bead_y.PNG,stimuli/bead_b.PNG,stimuli/bead_y.PNG,stimuli/bead_y.PNG,1,2,up,,,,,,,,,,,,,,,,,,,,,,,,
,,,,2023-10-06_15h59.02.581,Fish_Game,2023.1.3,MacIntel,60.0024001,,,,up,0.2434,,0,0,0,0,0,1,1,stimuli/bead_g.PNG,stimuli/blank.jpg,stimuli/blank.jpg,stimuli/blank.jpg,stimuli/blank.jpg,2,3,right,,,,,,,,,,,,,,,,,,,,,,,,
,,,,2023-10-06_15h59.02.581,Fish_Game,2023.1.3,MacIntel,60.0024001,,,,right,0.3673,,1,0,1,1,1,1,2,stimuli/bead_g.PNG,stimuli/bead_g.PNG,stimuli/blank.jpg,stimuli/blank.jpg,stimuli/blank.jpg,2,3,right,,,,,,,,,,,,,,,,,,,,,,,,
,,,,2023-10-06_15h59.02.581,Fish_Game,2023.1.3,MacIntel,60.0024001,,,,right,0.3054,,1,0,2,2,2,1,3,stimuli/bead_b.PNG,stimuli/bead_g.PNG,stimuli/bead_g.PNG,stimuli/blank.jpg,stimuli/blank.jpg,2,3,right,,,,,,,,,,,,,,,,,,,,,,,,
,,,,2023-10-06_15h59.02.581,Fish_Game,2023.1.3,MacIntel,60.0024001,,,,right,0.5899,,1,0,3,3,3,1,4,stimuli/bead_g.PNG,stimuli/bead_g.PNG,stimuli/bead_g.PNG,stimuli/bead_g.PNG,stimuli/blank.jpg,2,3,right,,,,,,,,,,,,,,,,,,,,,,,,
,,,,2023-10-06_15h59.02.581,Fish_Game,2023.1.3,MacIntel,60.0024001,,,,right,0.1594,,1,0,4,4,4,1,5,stimuli/bead_b.PNG,stimuli/bead_b.PNG,stimuli/bead_g.PNG,stimuli/bead_g.PNG,stimuli/bead_g.PNG,2,3,right,,,,,,,,,,,,,,,,,,,,,,,,
,,,,2023-10-06_15h59.02.581,Fish_Game,2023.1.3,MacIntel,60.0024001,,,,right,0.2177,,1,0,5,5,5,1,6,stimuli/bead_g.PNG,stimuli/bead_g.PNG,stimuli/bead_b.PNG,stimuli/bead_g.PNG,stimuli/bead_g.PNG,2,3,right,,,,,,,,,,,,,,,,,,,,,,,,
,,,,2023-10-06_15h59.02.581,Fish_Game,2023.1.3,MacIntel,60.0024001,,,,right,0.3049,,1,0,6,6,6,1,7,stimuli/bead_g.PNG,stimuli/bead_b.PNG,stimuli/bead_g.PNG,stimuli/bead_b.PNG,stimuli/bead_g.PNG,2,3,right,,,,,,,,,,,,,,,,,,,,,,,,
,,,,2023-10-06_15h59.02.581,Fish_Game,2023.1.3,MacIntel,60.0024001,,,,right,0.2667,,1,0,7,7,7,1,8,stimuli/bead_g.PNG,stimuli/bead_g.PNG,stimuli/bead_b.PNG,stimuli/bead_g.PNG,stimuli/bead_b.PNG,2,3,right,,,,,,,,,,,,,,,,,,,,,,,,
,,,,2023-10-06_15h59.02.581,Fish_Game,2023.1.3,MacIntel,60.0024001,,,,right,0.3323,,0,0,8,8,8,1,9,stimuli/bead_y.PNG,stimuli/bead_g.PNG,stimuli/bead_g.PNG,stimuli/bead_b.PNG,stimuli/bead_g.PNG,1,2,up,,,,,,,,,,,,,,,,,,,,,,,,
,,,,2023-10-06_15h59.02.581,Fish_Game,2023.1.3,MacIntel,60.0024001,,,,up,0.4928,,1,0,9,9,9,1,10,stimuli/bead_y.PNG,stimuli/bead_g.PNG,stimuli/bead_g.PNG,stimuli/bead_g.PNG,stimuli/bead_b.PNG,1,2,up,,,,,,,,,,,,,,,,,,,,,,,,
,,,,2023-10-06_15h59.02.581,Fish_Game,2023.1.3,MacIntel,60.0024001,,,,up,0.3547,,1,0,10,10,10,1,11,stimuli/bead_y.PNG,stimuli/bead_y.PNG,stimuli/bead_g.PNG,stimuli/bead_g.PNG,stimuli/bead_g.PNG,1,2,up,,,,,,,,,,,,,,,,,,,,,,,,
,,,,2023-10-06_15h59.02.581,Fish_Game,2023.1.3,MacIntel,60.0024001,,,,up,0.3866,,1,0,11,11,11,1,12,stimuli/bead_g.PNG,stimuli/bead_y.PNG,stimuli/bead_y.PNG,stimuli/bead_g.PNG,stimuli/bead_g.PNG,1,2,up,,,,,,,,,,,,,,,,,,,,,,,,
,,,,2023-10-06_15h59.02.581,Fish_Game,2023.1.3,MacIntel,60.0024001,,,,up,0.2724,,1,0,12,12,12,1,13,stimuli/bead_y.PNG,stimuli/bead_y.PNG,stimuli/bead_y.PNG,stimuli/bead_y.PNG,stimuli/bead_g.PNG,1,2,up,,,,,,,,,,,,,,,,,,,,,,,,
,,,,2023-10-06_15h59.02.581,Fish_Game,2023.1.3,MacIntel,60.0024001,,,,up,0.4416,,1,0,13,13,13,1,14,stimuli/bead_y.PNG,stimuli/bead_g.PNG,stimuli/bead_y.PNG,stimuli/bead_y.PNG,stimuli/bead_y.PNG,1,2,up,,,,,,,,,,,,,,,,,,,,,,,,
,,,,2023-10-06_15h59.02.581,Fish_Game,2023.1.3,MacIntel,60.0024001,,,,up,0.392,,1,0,14,14,14,1,15,stimuli/bead_b.PNG,stimuli/bead_y.PNG,stimuli/bead_g.PNG,stimuli/bead_y.PNG,stimuli/bead_y.PNG,1,2,up,,,,,,,,,,,,,,,,,,,,,,,,
,,,,2023-10-06_15h59.02.581,Fish_Game,2023.1.3,MacIntel,60.0024001,,,,,,,,,,,,,1,,,,,,,,,space,55.5795,,1,1condition/mainTrials6.xlsx,left,0.6597,,0,0.5,50657.1224,0,0,0,0,1,stimuli/bead_b.PNG,stimuli/blank.jpg,stimuli/blank.jpg,stimuli/blank.jpg,stimuli/blank.jpg,1,2,up
,,,,2023-10-06_15h59.02.581,Fish_Game,2023.1.3,MacIntel,60.0024001,,,,,,,,,,,,,2,,,,,,,,,,,,,,left,0.5008,,0,1.5,50659.6551,0,1,1,1,1,stimuli/bead_y.PNG,stimuli/bead_b.PNG,stimuli/blank.jpg,stimuli/blank.jpg,stimuli/blank.jpg,1,2,up
,,,,2023-10-06_15h59.02.581,Fish_Game,2023.1.3,MacIntel,60.0024001,,,,,,,,,,,,,3,,,,,,,,,,,,,,up,0.6683,,1,0.5,50661.3525,0,2,2,2,1,stimuli/bead_y.PNG,stimuli/bead_y.PNG,stimuli/bead_b.PNG,stimuli/blank.jpg,stimuli/blank.jpg,1,2,up
,,,,2023-10-06_15h59.02.581,Fish_Game,2023.1.3,MacIntel,60.0024001,,,,,,,,,,,,,4,,,,,,,,,,,,,,up,0.3616,,1,0.5,50662.7349,0,3,3,3,1,stimuli/bead_y.PNG,stimuli/bead_y.PNG,stimuli/bead_y.PNG,stimuli/bead_b.PNG,stimuli/blank.jpg,1,2,up
,,,,2023-10-06_15h59.02.581,Fish_Game,2023.1.3,MacIntel,60.0024001,,,,,,,,,,,,,5,,,,,,,,,,,,,,up,0.4813,,0,1.5,50665.2489,0,4,4,4,1,stimuli/bead_g.PNG,stimuli/bead_y.PNG,stimuli/bead_y.PNG,stimuli/bead_y.PNG,stimuli/bead_b.PNG,2,3,right
,,,,2023-10-06_15h59.02.581,Fish_Game,2023.1.3,MacIntel,60.0024001,,,,,,,,,,,,,6,,,,,,,,,,,,,,up,0.4518,,0,0.5,50666.7301,0,5,5,5,1,stimuli/bead_g.PNG,stimuli/bead_g.PNG,stimuli/bead_y.PNG,stimuli/bead_y.PNG,stimuli/bead_y.PNG,2,3,right
,,,,2023-10-06_15h59.02.581,Fish_Game,2023.1.3,MacIntel,60.0024001,,,,,,,,,,,,,7,,,,,,,,,,,,,,up,0.454,,0,1.5,50669.2134,0,6,6,6,1,stimuli/bead_y.PNG,stimuli/bead_g.PNG,stimuli/bead_g.PNG,stimuli/bead_y.PNG,stimuli/bead_y.PNG,2,3,right
,,,,2023-10-06_15h59.02.581,Fish_Game,2023.1.3,MacIntel,60.0024001,,,,,,,,,,,,,8,,,,,,,,,,,,,,right,0.8402,,1,0.5,50671.0771,0,7,7,7,1,stimuli/bead_g.PNG,stimuli/bead_y.PNG,stimuli/bead_g.PNG,stimuli/bead_g.PNG,stimuli/bead_y.PNG,2,3,right
,,,,2023-10-06_15h59.02.581,Fish_Game,2023.1.3,MacIntel,60.0024001,,,,,,,,,,,,,9,,,,,,,,,,,,,,right,0.3751,,1,1,50672.9589,0,8,8,8,1,stimuli/bead_g.PNG,stimuli/bead_g.PNG,stimuli/bead_y.PNG,stimuli/bead_g.PNG,stimuli/bead_g.PNG,2,3,right
,,,,2023-10-06_15h59.02.581,Fish_Game,2023.1.3,MacIntel,60.0024001,,,,,,,,,,,,,10,,,,,,,,,,,,,,right,0.4207,,1,0.5,50674.391,0,9,9,9,1,stimuli/bead_g.PNG,stimuli/bead_g.PNG,stimuli/bead_g.PNG,stimuli/bead_y.PNG,stimuli/bead_g.PNG,2,3,right
,,,,2023-10-06_15h59.02.581,Fish_Game,2023.1.3,MacIntel,60.0024001,,,,,,,,,,,,,11,,,,,,,,,,,,,,right,0.964,,0,1,50676.8721,0,10,10,10,1,stimuli/bead_y.PNG,stimuli/bead_g.PNG,stimuli/bead_g.PNG,stimuli/bead_g.PNG,stimuli/bead_y.PNG,1,2,up
,,,,2023-10-06_15h59.02.581,Fish_Game,2023.1.3,MacIntel,60.0024001,,,,,,,,,,,,,12,,,,,,,,,,,,,,right,0.5247,,0,0.5,50678.4199,0,11,11,11,1,stimuli/bead_b.PNG,stimuli/bead_y.PNG,stimuli/bead_g.PNG,stimuli/bead_g.PNG,stimuli/bead_g.PNG,1,2,up
,,,,2023-10-06_15h59.02.581,Fish_Game,2023.1.3,MacIntel,60.0024001,,,,,,,,,,,,,13,,,,,,,,,,,,,,up,0.8846,,1,1,50680.8355,0,12,12,12,1,stimuli/bead_y.PNG,stimuli/bead_b.PNG,stimuli/bead_y.PNG,stimuli/bead_g.PNG,stimuli/bead_g.PNG,1,2,up
,,,,2023-10-06_15h59.02.581,Fish_Game,2023.1.3,MacIntel,60.0024001,,,,,,,,,,,,,14,,,,,,,,,,,,,,up,0.404,,1,1,50682.7675,0,13,13,13,1,stimuli/bead_y.PNG,stimuli/bead_y.PNG,stimuli/bead_b.PNG,stimuli/bead_y.PNG,stimuli/bead_g.PNG,1,2,up
,,,,2023-10-06_15h59.02.581,Fish_Game,2023.1.3,MacIntel,60.0024001,,,,,,,,,,,,,15,,,,,,,,,,,,,,up,0.3746,,1,1.5,50685.1652,0,14,14,14,1,stimuli/bead_y.PNG,stimuli/bead_y.PNG,stimuli/bead_y.PNG,stimuli/bead_b.PNG,stimuli/bead_y.PNG,1,2,up
,,,,2023-10-06_15h59.02.581,Fish_Game,2023.1.3,MacIntel,60.0024001,,,,,,,,,,,,,1,,,,,,,,,,,,2,1condition/mainTrials7.xlsx,up,0.5662,,1,0.5,50691.7595,0,0,0,0,1,stimuli/bead_y.PNG,stimuli/blank.jpg,stimuli/blank.jpg,stimuli/blank.jpg,stimuli/blank.jpg,1,2,up
,,,,2023-10-06_15h59.02.581,Fish_Game,2023.1.3,MacIntel,60.0024001,,,,,,,,,,,,,2,,,,,,,,,,,,,,up,0.399,,1,1.5,50694.1909,0,1,1,1,1,stimuli/bead_y.PNG,stimuli/bead_y.PNG,stimuli/blank.jpg,stimuli/blank.jpg,stimuli/blank.jpg,1,2,up
,,,,2023-10-06_15h59.02.581,Fish_Game,2023.1.3,MacIntel,60.0024001,,,,,,,,,,,,,3,,,,,,,,,,,,,,up,0.6649,,1,1,50696.3884,0,2,2,2,1,stimuli/bead_g.PNG,stimuli/bead_y.PNG,stimuli/bead_y.PNG,stimuli/blank.jpg,stimuli/blank.jpg,1,2,up
,,,,2023-10-06_15h59.02.581,Fish_Game,2023.1.3,MacIntel,60.0024001,,,,,,,,,,,,,4,,,,,,,,,,,,,,up,0.4777,,1,1.5,50698.8894,0,3,3,3,1,stimuli/bead_y.PNG,stimuli/bead_g.PNG,stimuli/bead_y.PNG,stimuli/bead_y.PNG,stimuli/blank.jpg,1,2,up
,,,,2023-10-06_15h59.02.581,Fish_Game,2023.1.3,MacIntel,60.0024001,,,,,,,,,,,,,5,,,,,,,,,,,,,,up,0.4254,,1,1,50700.8375,0,4,4,4,1,stimuli/bead_y.PNG,stimuli/bead_y.PNG,stimuli/bead_g.PNG,stimuli/bead_y.PNG,stimuli/bead_y.PNG,1,2,up
,,,,2023-10-06_15h59.02.581,Fish_Game,2023.1.3,MacIntel,60.0024001,,,,,,,,,,,,,6,,,,,,,,,,,,,,up,0.372,,1,1.5,50703.2351,0,5,5,5,1,stimuli/bead_y.PNG,stimuli/bead_y.PNG,stimuli/bead_y.PNG,stimuli/bead_g.PNG,stimuli/bead_y.PNG,1,2,up
,,,,2023-10-06_15h59.02.581,Fish_Game,2023.1.3,MacIntel,60.0024001,,,,,,,,,,,,,7,,,,,,,,,,,,,,up,0.6508,,1,0.5,50704.9159,0,6,6,6,1,stimuli/bead_b.PNG,stimuli/bead_y.PNG,stimuli/bead_y.PNG,stimuli/bead_y.PNG,stimuli/bead_g.PNG,1,2,up
,,,,2023-10-06_15h59.02.581,Fish_Game,2023.1.3,MacIntel,60.0024001,,,,,,,,,,,,,8,,,,,,,,,,,,,,up,0.5253,,1,0.5,50706.4483,0,7,7,7,1,stimuli/bead_y.PNG,stimuli/bead_b.PNG,stimuli/bead_y.PNG,stimuli/bead_y.PNG,stimuli/bead_y.PNG,1,2,up
,,,,2023-10-06_15h59.02.581,Fish_Game,2023.1.3,MacIntel,60.0024001,,,,,,,,,,,,,9,,,,,,,,,,,,,,up,0.3742,,0,1,50708.3468,0,8,8,8,1,stimuli/bead_y.PNG,stimuli/bead_y.PNG,stimuli/bead_b.PNG,stimuli/bead_y.PNG,stimuli/bead_y.PNG,1,2,right
,,,,2023-10-06_15h59.02.581,Fish_Game,2023.1.3,MacIntel,60.0024001,,,,,,,,,,,,,10,,,,,,,,,,,,,,up,0.7879,,0,0.5,50710.1637,0,9,9,9,1,stimuli/bead_g.PNG,stimuli/bead_y.PNG,stimuli/bead_y.PNG,stimuli/bead_b.PNG,stimuli/bead_y.PNG,2,3,right
,,,,2023-10-06_15h59.02.581,Fish_Game,2023.1.3,MacIntel,60.0024001,,,,,,,,,,,,,11,,,,,,,,,,,,,,right,0.7995,,1,1.5,50712.9936,0,10,10,10,1,stimuli/bead_g.PNG,stimuli/bead_g.PNG,stimuli/bead_y.PNG,stimuli/bead_y.PNG,stimuli/bead_b.PNG,2,3,right
,,,,2023-10-06_15h59.02.581,Fish_Game,2023.1.3,MacIntel,60.0024001,,,,,,,,,,,,,12,,,,,,,,,,,,,,right,1.0002,,1,0.5,50715.0259,0,11,11,11,1,stimuli/bead_y.PNG,stimuli/bead_g.PNG,stimuli/bead_g.PNG,stimuli/bead_y.PNG,stimuli/bead_y.PNG,2,3,right
,,,,2023-10-06_15h59.02.581,Fish_Game,2023.1.3,MacIntel,60.0024001,,,,,,,,,,,,,13,,,,,,,,,,,,,,right,0.362,,1,1,50716.907,0,12,12,12,1,stimuli/bead_g.PNG,stimuli/bead_y.PNG,stimuli/bead_g.PNG,stimuli/bead_g.PNG,stimuli/bead_y.PNG,2,3,right
,,,,2023-10-06_15h59.02.581,Fish_Game,2023.1.3,MacIntel,60.0024001,,,,,,,,,,,,,14,,,,,,,,,,,,,,right,0.469,,1,1.5,50719.4057,0,13,13,13,1,stimuli/bead_g.PNG,stimuli/bead_g.PNG,stimuli/bead_y.PNG,stimuli/bead_g.PNG,stimuli/bead_g.PNG,2,3,right
,,,,2023-10-06_15h59.02.581,Fish_Game,2023.1.3,MacIntel,60.0024001,,,,,,,,,,,,,15,,,,,,,,,,,,,,right,0.4728,,1,0.5,50720.9049,0,14,14,14,1,stimuli/bead_g.PNG,stimuli/bead_g.PNG,stimuli/bead_g.PNG,stimuli/bead_y.PNG,stimuli/bead_g.PNG,2,3,right
,,,,2023-10-06_15h59.02.581,Fish_Game,2023.1.3,MacIntel,60.0024001,,,,,,,,,,,,,1,,,,,,,,,,,,3,1condition/mainTrials8.xlsx,up,0.6067,,0,1,50728.0329,0,0,0,0,1,stimuli/bead_y.PNG,stimuli/blank.jpg,stimuli/blank.jpg,stimuli/blank.jpg,stimuli/blank.jpg,0,1,left
,,,,2023-10-06_15h59.02.581,Fish_Game,2023.1.3,MacIntel,60.0024001,,,,,,,,,,,,,2,,,,,,,,,,,,,,up,0.7221,,0,0.5,50729.7802,0,1,1,1,1,stimuli/bead_b.PNG,stimuli/bead_y.PNG,stimuli/blank.jpg,stimuli/blank.jpg,stimuli/blank.jpg,0,1,left
,,,,2023-10-06_15h59.02.581,Fish_Game,2023.1.3,MacIntel,60.0024001,,,,,,,,,,,,,3,,,,,,,,,,,,,,right,0.6744,,0,0.5,50731.4781,0,2,2,2,1,stimuli/bead_g.PNG,stimuli/bead_b.PNG,stimuli/bead_y.PNG,stimuli/blank.jpg,stimuli/blank.jpg,0,1,left
,,,,2023-10-06_15h59.02.581,Fish_Game,2023.1.3,MacIntel,60.0024001,,,,,,,,,,,,,4,,,,,,,,,,,,,,up,0.7127,,0,1.5,50734.2282,0,3,3,3,1,stimuli/bead_b.PNG,stimuli/bead_g.PNG,stimuli/bead_b.PNG,stimuli/bead_y.PNG,stimuli/blank.jpg,0,1,left
,,,,2023-10-06_15h59.02.581,Fish_Game,2023.1.3,MacIntel,60.0024001,,,,,,,,,,,,,5,,,,,,,,,,,,,,left,0.3918,,1,1,50736.1421,0,4,4,4,1,stimuli/bead_b.PNG,stimuli/bead_b.PNG,stimuli/bead_g.PNG,stimuli/bead_b.PNG,stimuli/bead_y.PNG,0,1,left
,,,,2023-10-06_15h59.02.581,Fish_Game,2023.1.3,MacIntel,60.0024001,,,,,,,,,,,,,6,,,,,,,,,,,,,,left,0.5907,,1,0.5,50737.7399,0,5,5,5,1,stimuli/bead_b.PNG,stimuli/bead_b.PNG,stimuli/bead_b.PNG,stimuli/bead_g.PNG,stimuli/bead_b.PNG,0,1,left
,,,,2023-10-06_15h59.02.581,Fish_Game,2023.1.3,MacIntel,60.0024001,,,,,,,,,,,,,7,,,,,,,,,,,,,,left,0.8482,,1,1,50740.1214,0,6,6,6,1,stimuli/bead_g.PNG,stimuli/bead_b.PNG,stimuli/bead_b.PNG,stimuli/bead_b.PNG,stimuli/bead_g.PNG,0,1,left
,,,,2023-10-06_15h59.02.581,Fish_Game,2023.1.3,MacIntel,60.0024001,,,,,,,,,,,,,8,,,,,,,,,,,,,,left,0.4839,,1,0.5,50741.6395,0,7,7,7,1,stimuli/bead_b.PNG,stimuli/bead_g.PNG,stimuli/bead_b.PNG,stimuli/bead_b.PNG,stimuli/bead_b.PNG,0,1,left
,,,,2023-10-06_15h59.02.581,Fish_Game,2023.1.3,MacIntel,60.0024001,,,,,,,,,,,,,9,,,,,,,,,,,,,,up,0.7505,,0,1.5,50744.3984,0,8,8,8,1,stimuli/bead_y.PNG,stimuli/bead_b.PNG,stimuli/bead_g.PNG,stimuli/bead_b.PNG,stimuli/bead_b.PNG,0,1,left
,,,,2023-10-06_15h59.02.581,Fish_Game,2023.1.3,MacIntel,60.0024001,,,,,,,,,,,,,10,,,,,,,,,,,,,,left,0.5035,,1,1,50746.4313,0,9,9,9,1,stimuli/bead_b.PNG,stimuli/bead_y.PNG,stimuli/bead_b.PNG,stimuli/bead_g.PNG,stimuli/bead_b.PNG,0,1,left
,,,,2023-10-06_15h59.02.581,Fish_Game,2023.1.3,MacIntel,60.0024001,,,,,,,,,,,,,11,,,,,,,,,,,,,,left,0.4782,,1,1.5,50748.9321,0,10,10,10,1,stimuli/bead_b.PNG,stimuli/bead_b.PNG,stimuli/bead_y.PNG,stimuli/bead_b.PNG,stimuli/bead_g.PNG,0,1,left
,,,,2023-10-06_15h59.02.581,Fish_Game,2023.1.3,MacIntel,60.0024001,,,,,,,,,,,,,12,,,,,,,,,,,,,,left,0.6088,,0,1,50751.0626,0,11,11,11,1,stimuli/bead_y.PNG,stimuli/bead_b.PNG,stimuli/bead_b.PNG,stimuli/bead_y.PNG,stimuli/bead_b.PNG,1,2,up
,,,,2023-10-06_15h59.02.581,Fish_Game,2023.1.3,MacIntel,60.0024001,,,,,,,,,,,,,13,,,,,,,,,,,,,,up,0.817,,1,0.5,50752.9116,0,12,12,12,1,stimuli/bead_y.PNG,stimuli/bead_y.PNG,stimuli/bead_b.PNG,stimuli/bead_b.PNG,stimuli/bead_y.PNG,1,2,up
,,,,2023-10-06_15h59.02.581,Fish_Game,2023.1.3,MacIntel,60.0024001,,,,,,,,,,,,,14,,,,,,,,,,,,,,up,0.4592,,1,1.5,50755.3925,0,13,13,13,1,stimuli/bead_y.PNG,stimuli/bead_y.PNG,stimuli/bead_y.PNG,stimuli/bead_b.PNG,stimuli/bead_b.PNG,1,2,up
,,,,2023-10-06_15h59.02.581,Fish_Game,2023.1.3,MacIntel,60.0024001,,,,,,,,,,,,,15,,,,,,,,,,,,,,up,0.5171,,1,1.5,50757.9394,0,14,14,14,1,stimuli/bead_g.PNG,stimuli/bead_y.PNG,stimuli/bead_y.PNG,stimuli/bead_y.PNG,stimuli/bead_b.PNG,1,2,up
,,,,2023-10-06_15h59.02.581,Fish_Game,2023.1.3,MacIntel,60.0024001,,,,,,,,,,,,,1,,,,,,,,,,,,4,1condition/mainTrials1.xlsx,right,0.6822,,1,0.5,50764.651,0,0,0,0,1,stimuli/bead_g.PNG,stimuli/blank.jpg,stimuli/blank.jpg,stimuli/blank.jpg,stimuli/blank.jpg,2,3,right
,,,,2023-10-06_15h59.02.581,Fish_Game,2023.1.3,MacIntel,60.0024001,,,,,,,,,,,,,2,,,,,,,,,,,,,,up,1.0977,,0,1.5,50767.7816,0,1,1,1,1,stimuli/bead_y.PNG,stimuli/bead_g.PNG,stimuli/blank.jpg,stimuli/blank.jpg,stimuli/blank.jpg,2,3,right
,,,,2023-10-06_15h59.02.581,Fish_Game,2023.1.3,MacIntel,60.0024001,,,,,,,,,,,,,3,,,,,,,,,,,,,,right,0.7174,,1,1,50770.0314,0,2,2,2,1,stimuli/bead_g.PNG,stimuli/bead_y.PNG,stimuli/bead_g.PNG,stimuli/blank.jpg,stimuli/blank.jpg,2,3,right
,,,,2023-10-06_15h59.02.581,Fish_Game,2023.1.3,MacIntel,60.0024001,,,,,,,,,,,,,4,,,,,,,,,,,,,,left,2.0662,,0,1,50773.6273,0,3,3,3,1,stimuli/bead_b.PNG,stimuli/bead_g.PNG,stimuli/bead_y.PNG,stimuli/bead_g.PNG,stimuli/blank.jpg,2,3,right
,,,,2023-10-06_15h59.02.581,Fish_Game,2023.1.3,MacIntel,60.0024001,,,,,,,,,,,,,5,,,,,,,,,,,,,,right,0.6357,,1,0.5,50775.2931,0,4,4,4,1,stimuli/bead_g.PNG,stimuli/bead_b.PNG,stimuli/bead_g.PNG,stimuli/bead_y.PNG,stimuli/bead_g.PNG,2,3,right
,,,,2023-10-06_15h59.02.581,Fish_Game,2023.1.3,MacIntel,60.0024001,,,,,,,,,,,,,6,,,,,,,,,,,,,,right,0.5377,,1,0.5,50776.857,0,5,5,5,1,stimuli/bead_g.PNG,stimuli/bead_g.PNG,stimuli/bead_b.PNG,stimuli/bead_g.PNG,stimuli/bead_y.PNG,2,3,right
,,,,2023-10-06_15h59.02.581,Fish_Game,2023.1.3,MacIntel,60.0024001,,,,,,,,,,,,,7,,,,,,,,,,,,,,right,0.4029,,1,1.5,50779.2901,0,6,6,6,1,stimuli/bead_g.PNG,stimuli/bead_g.PNG,stimuli/bead_g.PNG,stimuli/bead_b.PNG,stimuli/bead_g.PNG,2,3,right
,,,,2023-10-06_15h59.02.581,Fish_Game,2023.1.3,MacIntel,60.0024001,,,,,,,,,,,,,8,,,,,,,,,,,,,,right,0.7524,,1,1.5,50782.0713,0,7,7,7,1,stimuli/bead_g.PNG,stimuli/bead_g.PNG,stimuli/bead_g.PNG,stimuli/bead_g.PNG,stimuli/bead_b.PNG,2,3,right
,,,,2023-10-06_15h59.02.581,Fish_Game,2023.1.3,MacIntel,60.0024001,,,,,,,,,,,,,9,,,,,,,,,,,,,,right,0.6215,,1,0.5,50783.7194,0,8,8,8,1,stimuli/bead_b.PNG,stimuli/bead_g.PNG,stimuli/bead_g.PNG,stimuli/bead_g.PNG,stimuli/bead_g.PNG,2,3,right
,,,,2023-10-06_15h59.02.581,Fish_Game,2023.1.3,MacIntel,60.0024001,,,,,,,,,,,,,10,,,,,,,,,,,,,,right,0.6364,,1,1,50785.8834,0,9,9,9,1,stimuli/bead_g.PNG,stimuli/bead_b.PNG,stimuli/bead_g.PNG,stimuli/bead_g.PNG,stimuli/bead_g.PNG,2,3,right
,,,,2023-10-06_15h59.02.581,Fish_Game,2023.1.3,MacIntel,60.0024001,,,,,,,,,,,,,11,,,,,,,,,,,,,,right,0.3772,,1,1,50787.7982,0,10,10,10,1,stimuli/bead_g.PNG,stimuli/bead_g.PNG,stimuli/bead_b.PNG,stimuli/bead_g.PNG,stimuli/bead_g.PNG,2,3,right
,,,,2023-10-06_15h59.02.581,Fish_Game,2023.1.3,MacIntel,60.0024001,,,,,,,,,,,,,12,,,,,,,,,,,,,,right,0.4954,,1,0.5,50789.3151,0,11,11,11,1,stimuli/bead_g.PNG,stimuli/bead_g.PNG,stimuli/bead_g.PNG,stimuli/bead_b.PNG,stimuli/bead_g.PNG,2,3,right
,,,,2023-10-06_15h59.02.581,Fish_Game,2023.1.3,MacIntel,60.0024001,,,,,,,,,,,,,13,,,,,,,,,,,,,,right,0.5829,,0,1.5,50791.9301,0,12,12,12,1,stimuli/bead_b.PNG,stimuli/bead_g.PNG,stimuli/bead_g.PNG,stimuli/bead_g.PNG,stimuli/bead_b.PNG,0,1,left
,,,,2023-10-06_15h59.02.581,Fish_Game,2023.1.3,MacIntel,60.0024001,,,,,,,,,,,,,14,,,,,,,,,,,,,,left,0.752,,1,1.5,50794.71,0,13,13,13,1,stimuli/bead_b.PNG,stimuli/bead_b.PNG,stimuli/bead_g.PNG,stimuli/bead_g.PNG,stimuli/bead_g.PNG,0,1,left
,,,,2023-10-06_15h59.02.581,Fish_Game,2023.1.3,MacIntel,60.0024001,,,,,,,,,,,,,15,,,,,,,,,,,,,,left,0.5333,,1,1,50796.7746,0,14,14,14,1,stimuli/bead_b.PNG,stimuli/bead_b.PNG,stimuli/bead_b.PNG,stimuli/bead_g.PNG,stimuli/bead_g.PNG,0,1,left
,,,,2023-10-06_15h59.02.581,Fish_Game,2023.1.3,MacIntel,60.0024001,,,,,,,,,,,,,1,,,,,,,,,,,,5,1condition/mainTrials2.xlsx,up,0.5519,,1,1,50803.8542,0,0,0,0,1,stimuli/bead_y.PNG,stimuli/blank.jpg,stimuli/blank.jpg,stimuli/blank.jpg,stimuli/blank.jpg,1,2,up
,,,,2023-10-06_15h59.02.581,Fish_Game,2023.1.3,MacIntel,60.0024001,,,,,,,,,,,,,2,,,,,,,,,,,,,,up,0.7478,,1,1.5,50806.6345,0,1,1,1,1,stimuli/bead_b.PNG,stimuli/bead_y.PNG,stimuli/blank.jpg,stimuli/blank.jpg,stimuli/blank.jpg,1,2,up
,,,,2023-10-06_15h59.02.581,Fish_Game,2023.1.3,MacIntel,60.0024001,,,,,,,,,,,,,3,,,,,,,,,,,,,,up,0.4575,,1,1,50808.6163,0,2,2,2,1,stimuli/bead_y.PNG,stimuli/bead_b.PNG,stimuli/bead_y.PNG,stimuli/blank.jpg,stimuli/blank.jpg,1,2,up
,,,,2023-10-06_15h59.02.581,Fish_Game,2023.1.3,MacIntel,60.0024001,,,,,,,,,,,,,4,,,,,,,,,,,,,,up,0.553,,1,0.5,50810.1835,0,3,3,3,1,stimuli/bead_y.PNG,stimuli/bead_y.PNG,stimuli/bead_b.PNG,stimuli/bead_y.PNG,stimuli/blank.jpg,1,2,up
,,,,2023-10-06_15h59.02.581,Fish_Game,2023.1.3,MacIntel,60.0024001,,,,,,,,,,,,,5,,,,,,,,,,,,,,up,0.5863,,1,1.5,50812.7973,0,4,4,4,1,stimuli/bead_g.PNG,stimuli/bead_y.PNG,stimuli/bead_y.PNG,stimuli/bead_b.PNG,stimuli/bead_y.PNG,1,2,up
,,,,2023-10-06_15h59.02.581,Fish_Game,2023.1.3,MacIntel,60.0024001,,,,,,,,,,,,,6,,,,,,,,,,,,,,up,0.4757,,1,0.5,50814.2959,0,5,5,5,1,stimuli/bead_y.PNG,stimuli/bead_g.PNG,stimuli/bead_y.PNG,stimuli/bead_y.PNG,stimuli/bead_b.PNG,1,2,up
,,,,2023-10-06_15h59.02.581,Fish_Game,2023.1.3,MacIntel,60.0024001,,,,,,,,,,,,,7,,,,,,,,,,,,,,up,0.7178,,0,1.5,50817.043,0,6,6,6,1,stimuli/bead_b.PNG,stimuli/bead_y.PNG,stimuli/bead_g.PNG,stimuli/bead_y.PNG,stimuli/bead_y.PNG,0,1,left
,,,,2023-10-06_15h59.02.581,Fish_Game,2023.1.3,MacIntel,60.0024001,,,,,,,,,,,,,8,,,,,,,,,,,,,,left,0.7184,,1,0.5,50818.7907,0,7,7,7,1,stimuli/bead_b.PNG,stimuli/bead_b.PNG,stimuli/bead_y.PNG,stimuli/bead_g.PNG,stimuli/bead_y.PNG,0,1,left
,,,,2023-10-06_15h59.02.581,Fish_Game,2023.1.3,MacIntel,60.0024001,,,,,,,,,,,,,9,,,,,,,,,,,,,,up,0.7171,,0,1,50821.0397,0,8,8,8,1,stimuli/bead_y.PNG,stimuli/bead_b.PNG,stimuli/bead_b.PNG,stimuli/bead_y.PNG,stimuli/bead_g.PNG,0,1,left
,,,,2023-10-06_15h59.02.581,Fish_Game,2023.1.3,MacIntel,60.0024001,,,,,,,,,,,,,10,,,,,,,,,,,,,,left,0.585,,1,1,50823.1546,0,9,9,9,1,stimuli/bead_b.PNG,stimuli/bead_y.PNG,stimuli/bead_b.PNG,stimuli/bead_b.PNG,stimuli/bead_y.PNG,0,1,left
,,,,2023-10-06_15h59.02.581,Fish_Game,2023.1.3,MacIntel,60.0024001,,,,,,,,,,,,,11,,,,,,,,,,,,,,left,0.4728,,1,1.5,50825.6512,0,10,10,10,1,stimuli/bead_b.PNG,stimuli/bead_b.PNG,stimuli/bead_y.PNG,stimuli/bead_b.PNG,stimuli/bead_b.PNG,0,1,left
,,,,2023-10-06_15h59.02.581,Fish_Game,2023.1.3,MacIntel,60.0024001,,,,,,,,,,,,,12,,,,,,,,,,,,,,left,0.4363,,1,0.5,50827.1175,0,11,11,11,1,stimuli/bead_b.PNG,stimuli/bead_b.PNG,stimuli/bead_b.PNG,stimuli/bead_y.PNG,stimuli/bead_b.PNG,0,1,left
,,,,2023-10-06_15h59.02.581,Fish_Game,2023.1.3,MacIntel,60.0024001,,,,,,,,,,,,,13,,,,,,,,,,,,,,left,0.6041,,1,1.5,50829.7593,0,12,12,12,1,stimuli/bead_g.PNG,stimuli/bead_b.PNG,stimuli/bead_b.PNG,stimuli/bead_b.PNG,stimuli/bead_y.PNG,0,1,left
,,,,2023-10-06_15h59.02.581,Fish_Game,2023.1.3,MacIntel,60.0024001,,,,,,,,,,,,,14,,,,,,,,,,,,,,left,0.4868,,1,1.5,50832.2724,0,13,13,13,1,stimuli/bead_b.PNG,stimuli/bead_g.PNG,stimuli/bead_b.PNG,stimuli/bead_b.PNG,stimuli/bead_b.PNG,0,1,left
,,,,2023-10-06_15h59.02.581,Fish_Game,2023.1.3,MacIntel,60.0024001,,,,,,,,,,,,,15,,,,,,,,,,,,,,left,0.4039,,1,1.5,50834.7036,0,14,14,14,1,stimuli/bead_b.PNG,stimuli/bead_b.PNG,stimuli/bead_g.PNG,stimuli/bead_b.PNG,stimuli/bead_b.PNG,0,1,left
,,,,2023-10-06_15h59.02.581,Fish_Game,2023.1.3,MacIntel,60.0024001,,,,,,,,,,,,,1,,,,,,,,,,,,6,1condition/mainTrials4.xlsx,left,0.1075,,0,1.5,50841.8316,0,0,0,0,1,stimuli/bead_g.PNG,stimuli/blank.jpg,stimuli/blank.jpg,stimuli/blank.jpg,stimuli/blank.jpg,2,3,right
,,,,2023-10-06_15h59.02.581,Fish_Game,2023.1.3,MacIntel,60.0024001,,,,,,,,,,,,,2,,,,,,,,,,,,,,right,0.3705,,1,1,50843.7294,0,1,1,1,1,stimuli/bead_g.PNG,stimuli/bead_g.PNG,stimuli/blank.jpg,stimuli/blank.jpg,stimuli/blank.jpg,2,3,right
,,,,2023-10-06_15h59.02.581,Fish_Game,2023.1.3,MacIntel,60.0024001,,,,,,,,,,,,,3,,,,,,,,,,,,,,right,0.7581,,1,0.5,50845.495,0,2,2,2,1,stimuli/bead_b.PNG,stimuli/bead_g.PNG,stimuli/bead_g.PNG,stimuli/blank.jpg,stimuli/blank.jpg,2,3,right
,,,,2023-10-06_15h59.02.581,Fish_Game,2023.1.3,MacIntel,60.0024001,,,,,,,,,,,,,4,,,,,,,,,,,,,,right,0.5235,,1,0.5,50847.0273,0,3,3,3,1,stimuli/bead_g.PNG,stimuli/bead_b.PNG,stimuli/bead_g.PNG,stimuli/bead_g.PNG,stimuli/blank.jpg,2,3,right
,,,,2023-10-06_15h59.02.581,Fish_Game,2023.1.3,MacIntel,60.0024001,,,,,,,,,,,,,5,,,,,,,,,,,,,,right,0.378,,1,1.5,50849.4271,0,4,4,4,1,stimuli/bead_g.PNG,stimuli/bead_g.PNG,stimuli/bead_b.PNG,stimuli/bead_g.PNG,stimuli/bead_g.PNG,2,3,right
,,,,2023-10-06_15h59.02.581,Fish_Game,2023.1.3,MacIntel,60.0024001,,,,,,,,,,,,,6,,,,,,,,,,,,,,right,0.5681,,1,0.5,50851.0243,0,5,5,5,1,stimuli/bead_y.PNG,stimuli/bead_g.PNG,stimuli/bead_g.PNG,stimuli/bead_b.PNG,stimuli/bead_g.PNG,2,3,right
,,,,2023-10-06_15h59.02.581,Fish_Game,2023.1.3,MacIntel,60.0024001,,,,,,,,,,,,,7,,,,,,,,,,,,,,right,0.3824,,1,0.5,50852.4389,0,6,6,6,1,stimuli/bead_g.PNG,stimuli/bead_y.PNG,stimuli/bead_g.PNG,stimuli/bead_g.PNG,stimuli/bead_b.PNG,2,3,right
,,,,2023-10-06_15h59.02.581,Fish_Game,2023.1.3,MacIntel,60.0024001,,,,,,,,,,,,,8,,,,,,,,,,,,,,right,0.3883,,0,1,50854.3538,0,7,7,7,1,stimuli/bead_y.PNG,stimuli/bead_g.PNG,stimuli/bead_y.PNG,stimuli/bead_g.PNG,stimuli/bead_g.PNG,1,2,up
,,,,2023-10-06_15h59.02.581,Fish_Game,2023.1.3,MacIntel,60.0024001,,,,,,,,,,,,,9,,,,,,,,,,,,,,up,1.0168,,1,1,50856.9021,0,8,8,8,1,stimuli/bead_y.PNG,stimuli/bead_y.PNG,stimuli/bead_g.PNG,stimuli/bead_y.PNG,stimuli/bead_g.PNG,1,2,up
,,,,2023-10-06_15h59.02.581,Fish_Game,2023.1.3,MacIntel,60.0024001,,,,,,,,,,,,,10,,,,,,,,,,,,,,up,0.5859,,1,1,50859.0174,0,9,9,9,1,stimuli/bead_g.PNG,stimuli/bead_y.PNG,stimuli/bead_y.PNG,stimuli/bead_g.PNG,stimuli/bead_y.PNG,1,2,up
,,,,2023-10-06_15h59.02.581,Fish_Game,2023.1.3,MacIntel,60.0024001,,,,,,,,,,,,,11,,,,,,,,,,,,,,up,0.2729,,1,1.5,50861.3176,0,10,10,10,1,stimuli/bead_y.PNG,stimuli/bead_g.PNG,stimuli/bead_y.PNG,stimuli/bead_y.PNG,stimuli/bead_g.PNG,1,2,up
,,,,2023-10-06_15h59.02.581,Fish_Game,2023.1.3,MacIntel,60.0024001,,,,,,,,,,,,,12,,,,,,,,,,,,,,up,0.3651,,1,1,50863.2155,0,11,11,11,1,stimuli/bead_y.PNG,stimuli/bead_y.PNG,stimuli/bead_g.PNG,stimuli/bead_y.PNG,stimuli/bead_y.PNG,1,2,up
,,,,2023-10-06_15h59.02.581,Fish_Game,2023.1.3,MacIntel,60.0024001,,,,,,,,,,,,,13,,,,,,,,,,,,,,up,0.4227,,1,1,50865.163,0,12,12,12,1,stimuli/bead_b.PNG,stimuli/bead_y.PNG,stimuli/bead_y.PNG,stimuli/bead_g.PNG,stimuli/bead_y.PNG,1,2,up
,,,,2023-10-06_15h59.02.581,Fish_Game,2023.1.3,MacIntel,60.0024001,,,,,,,,,,,,,14,,,,,,,,,,,,,,up,0.4242,,1,0.5,50866.6104,0,13,13,13,1,stimuli/bead_y.PNG,stimuli/bead_b.PNG,stimuli/bead_y.PNG,stimuli/bead_y.PNG,stimuli/bead_g.PNG,1,2,up
,,,,2023-10-06_15h59.02.581,Fish_Game,2023.1.3,MacIntel,60.0024001,,,,,,,,,,,,,15,,,,,,,,,,,,,,up,0.4014,,1,1.5,50869.0432,0,14,14,14,1,stimuli/bead_y.PNG,stimuli/bead_y.PNG,stimuli/bead_b.PNG,stimuli/bead_y.PNG,stimuli/bead_y.PNG,1,2,up
,,,,2023-10-06_15h59.02.581,Fish_Game,2023.1.3,MacIntel,60.0024001,,,,,,,,,,,,,1,,,,,,,,,,,,7,1condition/mainTrials3.xlsx,up,0.6171,,1,1,50876.1846,0,0,0,0,1,stimuli/bead_y.PNG,stimuli/blank.jpg,stimuli/blank.jpg,stimuli/blank.jpg,stimuli/blank.jpg,1,2,up
,,,,2023-10-06_15h59.02.581,Fish_Game,2023.1.3,MacIntel,60.0024001,,,,,,,,,,,,,2,,,,,,,,,,,,,,up,0.5208,,1,0.5,50877.7337,0,1,1,1,1,stimuli/bead_y.PNG,stimuli/bead_y.PNG,stimuli/blank.jpg,stimuli/blank.jpg,stimuli/blank.jpg,1,2,up
,,,,2023-10-06_15h59.02.581,Fish_Game,2023.1.3,MacIntel,60.0024001,,,,,,,,,,,,,3,,,,,,,,,,,,,,up,1.0849,,1,1,50880.3476,0,2,2,2,1,stimuli/bead_b.PNG,stimuli/bead_y.PNG,stimuli/bead_y.PNG,stimuli/blank.jpg,stimuli/blank.jpg,1,2,up
,,,,2023-10-06_15h59.02.581,Fish_Game,2023.1.3,MacIntel,60.0024001,,,,,,,,,,,,,4,,,,,,,,,,,,,,up,0.4771,,1,1,50882.3458,0,3,3,3,1,stimuli/bead_y.PNG,stimuli/bead_b.PNG,stimuli/bead_y.PNG,stimuli/bead_y.PNG,stimuli/blank.jpg,1,2,up
,,,,2023-10-06_15h59.02.581,Fish_Game,2023.1.3,MacIntel,60.0024001,,,,,,,,,,,,,5,,,,,,,,,,,,,,up,0.3417,,1,1,50884.2104,0,4,4,4,1,stimuli/bead_y.PNG,stimuli/bead_y.PNG,stimuli/bead_b.PNG,stimuli/bead_y.PNG,stimuli/bead_y.PNG,1,2,up
,,,,2023-10-06_15h59.02.581,Fish_Game,2023.1.3,MacIntel,60.0024001,,,,,,,,,,,,,6,,,,,,,,,,,,,,up,0.3842,,1,1.5,50886.6256,0,5,5,5,1,stimuli/bead_y.PNG,stimuli/bead_y.PNG,stimuli/bead_y.PNG,stimuli/bead_b.PNG,stimuli/bead_y.PNG,1,2,up
,,,,2023-10-06_15h59.02.581,Fish_Game,2023.1.3,MacIntel,60.0024001,,,,,,,,,,,,,7,,,,,,,,,,,,,,up,0.4751,,1,1.5,50889.1241,0,6,6,6,1,stimuli/bead_b.PNG,stimuli/bead_y.PNG,stimuli/bead_y.PNG,stimuli/bead_y.PNG,stimuli/bead_b.PNG,1,2,up
,,,,2023-10-06_15h59.02.581,Fish_Game,2023.1.3,MacIntel,60.0024001,,,,,,,,,,,,,8,,,,,,,,,,,,,,up,0.4327,,1,1,50891.0905,0,7,7,7,1,stimuli/bead_y.PNG,stimuli/bead_b.PNG,stimuli/bead_y.PNG,stimuli/bead_y.PNG,stimuli/bead_y.PNG,1,2,up
,,,,2023-10-06_15h59.02.581,Fish_Game,2023.1.3,MacIntel,60.0024001,,,,,,,,,,,,,9,,,,,,,,,,,,,,up,0.4335,,1,0.5,50892.5564,0,8,8,8,1,stimuli/bead_y.PNG,stimuli/bead_y.PNG,stimuli/bead_b.PNG,stimuli/bead_y.PNG,stimuli/bead_y.PNG,1,2,up
,,,,2023-10-06_15h59.02.581,Fish_Game,2023.1.3,MacIntel,60.0024001,,,,,,,,,,,,,10,,,,,,,,,,,,,,up,0.5172,,1,1.5,50895.1037,0,9,9,9,1,stimuli/bead_g.PNG,stimuli/bead_y.PNG,stimuli/bead_y.PNG,stimuli/bead_b.PNG,stimuli/bead_y.PNG,1,2,up
,,,,2023-10-06_15h59.02.581,Fish_Game,2023.1.3,MacIntel,60.0024001,,,,,,,,,,,,,11,,,,,,,,,,,,,,up,0.3837,,1,1.5,50897.5178,0,10,10,10,1,stimuli/bead_y.PNG,stimuli/bead_g.PNG,stimuli/bead_y.PNG,stimuli/bead_y.PNG,stimuli/bead_b.PNG,1,2,up
,,,,2023-10-06_15h59.02.581,Fish_Game,2023.1.3,MacIntel,60.0024001,,,,,,,,,,,,,12,,,,,,,,,,,,,,up,0.8969,,1,0.5,50899.4516,0,11,11,11,1,stimuli/bead_g.PNG,stimuli/bead_y.PNG,stimuli/bead_g.PNG,stimuli/bead_y.PNG,stimuli/bead_y.PNG,1,2,up
,,,,2023-10-06_15h59.02.581,Fish_Game,2023.1.3,MacIntel,60.0024001,,,,,,,,,,,,,13,,,,,,,,,,,,,,up,0.4522,,1,0.5,50900.923,0,12,12,12,1,stimuli/bead_y.PNG,stimuli/bead_g.PNG,stimuli/bead_y.PNG,stimuli/bead_g.PNG,stimuli/bead_y.PNG,1,2,up
,,,,2023-10-06_15h59.02.581,Fish_Game,2023.1.3,MacIntel,60.0024001,,,,,,,,,,,,,14,,,,,,,,,,,,,,up,0.3391,,1,1.5,50903.2884,0,13,13,13,1,stimuli/bead_y.PNG,stimuli/bead_y.PNG,stimuli/bead_g.PNG,stimuli/bead_y.PNG,stimuli/bead_g.PNG,1,2,up
,,,,2023-10-06_15h59.02.581,Fish_Game,2023.1.3,MacIntel,60.0024001,,,,,,,,,,,,,15,,,,,,,,,,,,,,up,0.4385,,1,0.5,50904.7525,0,14,14,14,1,stimuli/bead_y.PNG,stimuli/bead_y.PNG,stimuli/bead_y.PNG,stimuli/bead_g.PNG,stimuli/bead_y.PNG,1,2,up
,,,,2023-10-06_15h59.02.581,Fish_Game,2023.1.3,MacIntel,60.0024001,,,,,,,,,,,,,1,,,,,,,,,,,,8,1condition/mainTrials9.xlsx,right,0.5986,,1,1,50911.8822,0,0,0,0,1,stimuli/bead_g.PNG,stimuli/blank.jpg,stimuli/blank.jpg,stimuli/blank.jpg,stimuli/blank.jpg,2,3,right
,,,,2023-10-06_15h59.02.581,Fish_Game,2023.1.3,MacIntel,60.0024001,,,,,,,,,,,,,2,,,,,,,,,,,,,,right,0.4704,,1,0.5,50913.3639,0,1,1,1,1,stimuli/bead_g.PNG,stimuli/bead_g.PNG,stimuli/blank.jpg,stimuli/blank.jpg,stimuli/blank.jpg,2,3,right
,,,,2023-10-06_15h59.02.581,Fish_Game,2023.1.3,MacIntel,60.0024001,,,,,,,,,,,,,3,,,,,,,,,,,,,,right,0.7154,,1,1,50915.6114,0,2,2,2,1,stimuli/bead_b.PNG,stimuli/bead_g.PNG,stimuli/bead_g.PNG,stimuli/blank.jpg,stimuli/blank.jpg,2,3,right
,,,,2023-10-06_15h59.02.581,Fish_Game,2023.1.3,MacIntel,60.0024001,,,,,,,,,,,,,4,,,,,,,,,,,,,,right,0.4495,,1,1.5,50918.0912,0,3,3,3,1,stimuli/bead_g.PNG,stimuli/bead_b.PNG,stimuli/bead_g.PNG,stimuli/bead_g.PNG,stimuli/blank.jpg,2,3,right
,,,,2023-10-06_15h59.02.581,Fish_Game,2023.1.3,MacIntel,60.0024001,,,,,,,,,,,,,5,,,,,,,,,,,,,,right,0.5339,,1,0.5,50919.6599,0,4,4,4,1,stimuli/bead_g.PNG,stimuli/bead_g.PNG,stimuli/bead_b.PNG,stimuli/bead_g.PNG,stimuli/bead_g.PNG,2,3,right
,,,,2023-10-06_15h59.02.581,Fish_Game,2023.1.3,MacIntel,60.0024001,,,,,,,,,,,,,6,,,,,,,,,,,,,,right,0.5721,,1,1,50921.7554,0,5,5,5,1,stimuli/bead_b.PNG,stimuli/bead_g.PNG,stimuli/bead_g.PNG,stimuli/bead_b.PNG,stimuli/bead_g.PNG,2,3,right
,,,,2023-10-06_15h59.02.581,Fish_Game,2023.1.3,MacIntel,60.0024001,,,,,,,,,,,,,7,,,,,,,,,,,,,,right,0.4658,,1,1.5,50924.2529,0,6,6,6,1,stimuli/bead_g.PNG,stimuli/bead_b.PNG,stimuli/bead_g.PNG,stimuli/bead_g.PNG,stimuli/bead_b.PNG,2,3,right
,,,,2023-10-06_15h59.02.581,Fish_Game,2023.1.3,MacIntel,60.0024001,,,,,,,,,,,,,8,,,,,,,,,,,,,,right,0.283,,1,1.5,50926.568,0,7,7,7,1,stimuli/bead_g.PNG,stimuli/bead_g.PNG,stimuli/bead_b.PNG,stimuli/bead_g.PNG,stimuli/bead_g.PNG,2,3,right
,,,,2023-10-06_15h59.02.581,Fish_Game,2023.1.3,MacIntel,60.0024001,,,,,,,,,,,,,9,,,,,,,,,,,,,,right,0.5883,,0,1,50928.6832,0,8,8,8,1,stimuli/bead_b.PNG,stimuli/bead_g.PNG,stimuli/bead_g.PNG,stimuli/bead_b.PNG,stimuli/bead_g.PNG,0,1,left
,,,,2023-10-06_15h59.02.581,Fish_Game,2023.1.3,MacIntel,60.0024001,,,,,,,,,,,,,10,,,,,,,,,,,,,,right,0.5879,,0,1,50930.7848,0,9,9,9,1,stimuli/bead_y.PNG,stimuli/bead_b.PNG,stimuli/bead_g.PNG,stimuli/bead_g.PNG,stimuli/bead_b.PNG,0,1,left
,,,,2023-10-06_15h59.02.581,Fish_Game,2023.1.3,MacIntel,60.0024001,,,,,,,,,,,,,11,,,,,,,,,,,,,,left,0.7832,,1,1.5,50933.5821,0,10,10,10,1,stimuli/bead_b.PNG,stimuli/bead_y.PNG,stimuli/bead_b.PNG,stimuli/bead_g.PNG,stimuli/bead_g.PNG,0,1,left
,,,,2023-10-06_15h59.02.581,Fish_Game,2023.1.3,MacIntel,60.0024001,,,,,,,,,,,,,12,,,,,,,,,,,,,,left,0.325,,1,1.5,50935.9301,0,11,11,11,1,stimuli/bead_b.PNG,stimuli/bead_b.PNG,stimuli/bead_y.PNG,stimuli/bead_b.PNG,stimuli/bead_g.PNG,0,1,left
,,,,2023-10-06_15h59.02.581,Fish_Game,2023.1.3,MacIntel,60.0024001,,,,,,,,,,,,,13,,,,,,,,,,,,,,left,0.3512,,1,1,50937.7932,0,12,12,12,1,stimuli/bead_b.PNG,stimuli/bead_b.PNG,stimuli/bead_b.PNG,stimuli/bead_y.PNG,stimuli/bead_b.PNG,0,1,left
,,,,2023-10-06_15h59.02.581,Fish_Game,2023.1.3,MacIntel,60.0024001,,,,,,,,,,,,,14,,,,,,,,,,,,,,left,0.4998,,1,0.5,50939.3253,0,13,13,13,1,stimuli/bead_g.PNG,stimuli/bead_b.PNG,stimuli/bead_b.PNG,stimuli/bead_b.PNG,stimuli/bead_y.PNG,0,1,left
,,,,2023-10-06_15h59.02.581,Fish_Game,2023.1.3,MacIntel,60.0024001,,,,,,,,,,,,,15,,,,,,,,,,,,,,left,0.4149,,1,0.5,50940.7752,0,14,14,14,1,stimuli/bead_b.PNG,stimuli/bead_g.PNG,stimuli/bead_b.PNG,stimuli/bead_b.PNG,stimuli/bead_b.PNG,0,1,left
,,,,2023-10-06_15h59.02.581,Fish_Game,2023.1.3,MacIntel,60.0024001,,,,,,,,,,,,,1,,,,,,,,,,,,9,1condition/mainTrials5.xlsx,left,0.5261,,1,1,50947.8202,0,0,0,0,1,stimuli/bead_b.PNG,stimuli/blank.jpg,stimuli/blank.jpg,stimuli/blank.jpg,stimuli/blank.jpg,0,1,left
,,,,2023-10-06_15h59.02.581,Fish_Game,2023.1.3,MacIntel,60.0024001,,,,,,,,,,,,,2,,,,,,,,,,,,,,left,0.7265,,1,1,50950.0751,0,1,1,1,1,stimuli/bead_b.PNG,stimuli/bead_b.PNG,stimuli/blank.jpg,stimuli/blank.jpg,stimuli/blank.jpg,0,1,left
,,,,2023-10-06_15h59.02.581,Fish_Game,2023.1.3,MacIntel,60.0024001,,,,,,,,,,,,,3,,,,,,,,,,,,,,left,0.4922,,1,1,50952.09,0,2,2,2,1,stimuli/bead_y.PNG,stimuli/bead_b.PNG,stimuli/bead_b.PNG,stimuli/blank.jpg,stimuli/blank.jpg,0,1,left
,,,,2023-10-06_15h59.02.581,Fish_Game,2023.1.3,MacIntel,60.0024001,,,,,,,,,,,,,4,,,,,,,,,,,,,,left,0.3569,,1,1.5,50954.4708,0,3,3,3,1,stimuli/bead_b.PNG,stimuli/bead_y.PNG,stimuli/bead_b.PNG,stimuli/bead_b.PNG,stimuli/blank.jpg,0,1,left
,,,,2023-10-06_15h59.02.581,Fish_Game,2023.1.3,MacIntel,60.0024001,,,,,,,,,,,,,5,,,,,,,,,,,,,,left,0.42,,1,1,50956.4185,0,4,4,4,1,stimuli/bead_b.PNG,stimuli/bead_b.PNG,stimuli/bead_y.PNG,stimuli/bead_b.PNG,stimuli/bead_b.PNG,0,1,left
,,,,2023-10-06_15h59.02.581,Fish_Game,2023.1.3,MacIntel,60.0024001,,,,,,,,,,,,,6,,,,,,,,,,,,,,left,0.5363,,0,1,50958.4824,0,5,5,5,1,stimuli/bead_g.PNG,stimuli/bead_b.PNG,stimuli/bead_b.PNG,stimuli/bead_y.PNG,stimuli/bead_b.PNG,2,3,right
,,,,2023-10-06_15h59.02.581,Fish_Game,2023.1.3,MacIntel,60.0024001,,,,,,,,,,,,,7,,,,,,,,,,,,,,left,0.585,,0,0.5,50960.0922,0,6,6,6,1,stimuli/bead_g.PNG,stimuli/bead_g.PNG,stimuli/bead_b.PNG,stimuli/bead_b.PNG,stimuli/bead_y.PNG,2,2,right
,,,,2023-10-06_15h59.02.581,Fish_Game,2023.1.3,MacIntel,60.0024001,,,,,,,,,,,,,8,,,,,,,,,,,,,,left,1.016,,0,1.5,50963.1391,0,7,7,7,1,stimuli/bead_b.PNG,stimuli/bead_g.PNG,stimuli/bead_g.PNG,stimuli/bead_b.PNG,stimuli/bead_b.PNG,2,2,right
,,,,2023-10-06_15h59.02.581,Fish_Game,2023.1.3,MacIntel,60.0024001,,,,,,,,,,,,,9,,,,,,,,,,,,,,left,0.4835,,0,1.5,50965.652,0,8,8,8,1,stimuli/bead_g.PNG,stimuli/bead_b.PNG,stimuli/bead_g.PNG,stimuli/bead_g.PNG,stimuli/bead_b.PNG,2,2,right
,,,,2023-10-06_15h59.02.581,Fish_Game,2023.1.3,MacIntel,60.0024001,,,,,,,,,,,,,10,,,,,,,,,,,,,,right,0.1011,,1,0.5,50966.785,0,9,9,9,1,stimuli/bead_b.PNG,stimuli/bead_g.PNG,stimuli/bead_b.PNG,stimuli/bead_g.PNG,stimuli/bead_g.PNG,2,2,right
,,,,2023-10-06_15h59.02.581,Fish_Game,2023.1.3,MacIntel,60.0024001,,,,,,,,,,,,,11,,,,,,,,,,,,,,right,0.4563,,1,1,50968.7671,0,10,10,10,1,stimuli/bead_g.PNG,stimuli/bead_b.PNG,stimuli/bead_g.PNG,stimuli/bead_b.PNG,stimuli/bead_g.PNG,2,2,right
,,,,2023-10-06_15h59.02.581,Fish_Game,2023.1.3,MacIntel,60.0024001,,,,,,,,,,,,,12,,,,,,,,,,,,,,right,1.0403,,1,0.5,50970.8338,0,11,11,11,1,stimuli/bead_g.PNG,stimuli/bead_g.PNG,stimuli/bead_b.PNG,stimuli/bead_g.PNG,stimuli/bead_b.PNG,2,2,right
,,,,2023-10-06_15h59.02.581,Fish_Game,2023.1.3,MacIntel,60.0024001,,,,,,,,,,,,,13,,,,,,,,,,,,,,right,0.556,,1,1.5,50973.4143,0,12,12,12,1,stimuli/bead_g.PNG,stimuli/bead_g.PNG,stimuli/bead_g.PNG,stimuli/bead_b.PNG,stimuli/bead_g.PNG,2,3,right
,,,,2023-10-06_15h59.02.581,Fish_Game,2023.1.3,MacIntel,60.0024001,,,,,,,,,,,,,14,,,,,,,,,,,,,,right,1.3088,,1,1.5,50976.7434,0,13,13,13,1,stimuli/bead_y.PNG,stimuli/bead_g.PNG,stimuli/bead_g.PNG,stimuli/bead_g.PNG,stimuli/bead_b.PNG,2,3,right
,,,,2023-10-06_15h59.02.581,Fish_Game,2023.1.3,MacIntel,60.0024001,,,,,,,,,,,,,15,,,,,,,,,,,,,,right,0.4176,,1,1.5,50979.1928,0,14,14,14,1,stimuli/bead_g.PNG,stimuli/bead_y.PNG,stimuli/bead_g.PNG,stimuli/bead_g.PNG,stimuli/bead_g.PNG,2,3,right
,,,,2023-10-06_15h59.02.581,Fish_Game,2023.1.3,MacIntel,60.0024001,,,,,,,,,,,,,1,,,,,,,,,,,,10,1condition/mainTrials10.xlsx,up,0.572,,0,1,50986.2877,0,0,0,0,1,stimuli/bead_y.PNG,stimuli/blank.jpg,stimuli/blank.jpg,stimuli/blank.jpg,stimuli/blank.jpg,0,1,left
,,,,2023-10-06_15h59.02.581,Fish_Game,2023.1.3,MacIntel,60.0024001,,,,,,,,,,,,,2,,,,,,,,,,,,,,left,0.9824,,1,1,50988.7994,0,1,1,1,1,stimuli/bead_b.PNG,stimuli/bead_y.PNG,stimuli/blank.jpg,stimuli/blank.jpg,stimuli/blank.jpg,0,1,left
,,,,2023-10-06_15h59.02.581,Fish_Game,2023.1.3,MacIntel,60.0024001,,,,,,,,,,,,,3,,,,,,,,,,,,,,left,0.6282,,1,0.5,50990.4517,0,2,2,2,1,stimuli/bead_b.PNG,stimuli/bead_b.PNG,stimuli/bead_y.PNG,stimuli/blank.jpg,stimuli/blank.jpg,0,1,left
,,,,2023-10-06_15h59.02.581,Fish_Game,2023.1.3,MacIntel,60.0024001,,,,,,,,,,,,,4,,,,,,,,,,,,,,left,0.4405,,1,1,50992.4155,0,3,3,3,1,stimuli/bead_b.PNG,stimuli/bead_b.PNG,stimuli/bead_b.PNG,stimuli/bead_y.PNG,stimuli/blank.jpg,0,1,left
,,,,2023-10-06_15h59.02.581,Fish_Game,2023.1.3,MacIntel,60.0024001,,,,,,,,,,,,,5,,,,,,,,,,,,,,left,0.3869,,1,1,50994.332,0,4,4,4,1,stimuli/bead_b.PNG,stimuli/bead_b.PNG,stimuli/bead_b.PNG,stimuli/bead_b.PNG,stimuli/bead_y.PNG,0,1,left
,,,,2023-10-06_15h59.02.581,Fish_Game,2023.1.3,MacIntel,60.0024001,,,,,,,,,,,,,6,,,,,,,,,,,,,,left,0.7991,,1,0.5,50996.1629,0,5,5,5,1,stimuli/bead_g.PNG,stimuli/bead_b.PNG,stimuli/bead_b.PNG,stimuli/bead_b.PNG,stimuli/bead_b.PNG,0,1,left
,,,,2023-10-06_15h59.02.581,Fish_Game,2023.1.3,MacIntel,60.0024001,,,,,,,,,,,,,7,,,,,,,,,,,,,,left,0.4756,,1,0.5,50997.6626,0,6,6,6,1,stimuli/bead_b.PNG,stimuli/bead_g.PNG,stimuli/bead_b.PNG,stimuli/bead_b.PNG,stimuli/bead_b.PNG,0,1,left
,,,,2023-10-06_15h59.02.581,Fish_Game,2023.1.3,MacIntel,60.0024001,,,,,,,,,,,,,8,,,,,,,,,,,,,,left,0.3685,,1,1,50999.5596,0,7,7,7,1,stimuli/bead_b.PNG,stimuli/bead_b.PNG,stimuli/bead_g.PNG,stimuli/bead_b.PNG,stimuli/bead_b.PNG,0,1,left
,,,,2023-10-06_15h59.02.581,Fish_Game,2023.1.3,MacIntel,60.0024001,,,,,,,,,,,,,9,,,,,,,,,,,,,,left,0.5585,,1,1,51001.6427,0,8,8,8,1,stimuli/bead_y.PNG,stimuli/bead_b.PNG,stimuli/bead_b.PNG,stimuli/bead_g.PNG,stimuli/bead_b.PNG,0,1,left
,,,,2023-10-06_15h59.02.581,Fish_Game,2023.1.3,MacIntel,60.0024001,,,,,,,,,,,,,10,,,,,,,,,,,,,,left,0.5328,,1,0.5,51003.2075,0,9,9,9,1,stimuli/bead_b.PNG,stimuli/bead_y.PNG,stimuli/bead_b.PNG,stimuli/bead_b.PNG,stimuli/bead_g.PNG,0,1,left
,,,,2023-10-06_15h59.02.581,Fish_Game,2023.1.3,MacIntel,60.0024001,,,,,,,,,,,,,11,,,,,,,,,,,,,,left,0.6983,,0,1,51005.4105,0,10,10,10,1,stimuli/bead_g.PNG,stimuli/bead_b.PNG,stimuli/bead_y.PNG,stimuli/bead_b.PNG,stimuli/bead_b.PNG,2,3,right
,,,,2023-10-06_15h59.02.581,Fish_Game,2023.1.3,MacIntel,60.0024001,,,,,,,,,,,,,12,,,,,,,,,,,,,,left,0.4178,,0,0.5,51006.8559,0,11,11,11,1,stimuli/bead_b.PNG,stimuli/bead_g.PNG,stimuli/bead_b.PNG,stimuli/bead_y.PNG,stimuli/bead_b.PNG,2,3,right
,,,,2023-10-06_15h59.02.581,Fish_Game,2023.1.3,MacIntel,60.0024001,,,,,,,,,,,,,13,,,,,,,,,,,,,,left,1.3347,,0,0.5,51009.2183,0,12,12,12,1,stimuli/bead_g.PNG,stimuli/bead_b.PNG,stimuli/bead_g.PNG,stimuli/bead_b.PNG,stimuli/bead_y.PNG,2,3,right
,,,,2023-10-06_15h59.02.581,Fish_Game,2023.1.3,MacIntel,60.0024001,,,,,,,,,,,,,14,,,,,,,,,,,,,,left,0.3887,,0,1,51011.1253,0,13,13,13,1,stimuli/bead_g.PNG,stimuli/bead_g.PNG,stimuli/bead_b.PNG,stimuli/bead_g.PNG,stimuli/bead_b.PNG,2,3,right
,,,,2023-10-06_15h59.02.581,Fish_Game,2023.1.3,MacIntel,60.0024001,,,,,,,,,,,,,15,,,,,,,,,,,,,,right,0.3678,,1,0.5,51012.5055,0,14,14,14,1,stimuli/bead_g.PNG,stimuli/bead_g.PNG,stimuli/bead_g.PNG,stimuli/bead_b.PNG,stimuli/bead_g.PNG,2,3,right
