welcome_key_keys,welcome_key_rt,welcome_key_duration,prolific_id,path_id,date,expName,psychopyVersion,OS,frameRate,ins1_key_keys,ins1_key_rt,ins1_key_duration,practice_trial_started,practice_trial_num,prac_key_resp_keys,prac_key_resp_rt,prac_key_resp_duration,prac_resp_corr,prac_trials.thisRepN,prac_trials.thisTrialN,prac_trials.thisN,prac_trials.thisIndex,prac_trials.ran,trial,fish1_p,fish2_p,fish3_p,fish4_p,fish5_p,pond_p,pond_p2,pond_p3,ExpStart_key_keys,ExpStart_key_rt,ExpStart_key_duration,block number,block assignment,main_trial_started,main_trial_num,main_trial_keys,main_trial_rt,main_trial_duration,main_resp_corr,fish_interval,key_resp_time,trials.thisRepN,trials.thisTrialN,trials.thisN,trials.thisIndex,trials.ran,fish1,fish2,fish3,fish4,fish5,pond,pond2,pond3,block_correct,reward_amount,date_end_task,pracBlock.thisRepN,pracBlock.thisTrialN,pracBlock.thisN,pracBlock.thisIndex,pracBlock.ran,pracBlock.order,pracBlocksFile,prac_trials.order
space,5.1269,,,A,2024-05-08_11h18.39.553,Fish Game,2023.1.3,MacIntel,60.97560976,,,,,,,,,,,,,,,,,,,,,,,,,,,,,,,,,,,,,,,,,,,,,,,,,,,,,,,,,,,,
,,,,A,2024-05-08_11h18.39.553,Fish Game,2023.1.3,MacIntel,60.97560976,space,13.1418,,,,,,,,,,,,,,,,,,,,,,,,,,,,,,,,,,,,,,,,,,,,,,,,,,,,,,,,,,
,,,,A,2024-05-08_11h18.39.553,Fish Game,2023.1.3,MacIntel,60.97560976,,,,,,,,,,,,,,,,,,,,,,,,,,,,,,,,,,,,,,,,,,,,,,,,,,,,,,,,,,,,
,,,,A,2024-05-08_11h18.39.553,Fish Game,2023.1.3,MacIntel,60.97560976,,,,,,,,,,,,,,,,,,,,,,,,,,,,,,,,,,,,,,,,,,,,,,,,,,,,,,,,,,,,
,,,,A,2024-05-08_11h18.39.553,Fish Game,2023.1.3,MacIntel,60.97560976,,,,,,,,,,,,,,,,,,,,,,,,,,,,,,,,,,,,,,,,,,,,,,,,,,,,,,,,,,,,
,,,,A,2024-05-08_11h18.39.553,Fish Game,2023.1.3,MacIntel,60.97560976,,,,,,,,,,,,,,,,,,,,,,,,,,,,,,,,,,,,,,,,,,,,,,,,,,,,,,,,,,,,
,,,,A,2024-05-08_11h18.39.553,Fish Game,2023.1.3,MacIntel,60.97560976,,,,687.7687,0,left,0.5251,,1,0,0,0,0,1,1,stimuli/bead_b.PNG,stimuli/blank.jpg,stimuli/blank.jpg,stimuli/blank.jpg,stimuli/blank.jpg,0,1,left,,,,,,,,,,,,,,,,,,,,,,,,,,,,,,,,,,,,,
,,,,A,2024-05-08_11h18.39.553,Fish Game,2023.1.3,MacIntel,60.97560976,,,,690.6279,1,up,0.5776,,0,0,1,1,1,1,2,stimuli/bead_b.PNG,stimuli/bead_b.PNG,stimuli/blank.jpg,stimuli/blank.jpg,stimuli/blank.jpg,0,1,left,,,,,,,,,,,,,,,,,,,,,,,,,,,,,,,,,,,,,
,,,,A,2024-05-08_11h18.39.553,Fish Game,2023.1.3,MacIntel,60.97560976,,,,692.5114,2,up,0.611,,0,0,2,2,2,1,3,stimuli/bead_g.PNG,stimuli/bead_b.PNG,stimuli/bead_b.PNG,stimuli/blank.jpg,stimuli/blank.jpg,0,1,left,,,,,,,,,,,,,,,,,,,,,,,,,,,,,,,,,,,,,
,,,,A,2024-05-08_11h18.39.553,Fish Game,2023.1.3,MacIntel,60.97560976,,,,695.4305,3,up,0.6018,,0,0,3,3,3,1,4,stimuli/bead_b.PNG,stimuli/bead_g.PNG,stimuli/bead_b.PNG,stimuli/bead_b.PNG,stimuli/blank.jpg,0,1,left,,,,,,,,,,,,,,,,,,,,,,,,,,,,,,,,,,,,,
,,,,A,2024-05-08_11h18.39.553,Fish Game,2023.1.3,MacIntel,60.97560976,,,,697.8494,4,up,0.5255,,0,0,4,4,4,1,5,stimuli/bead_b.PNG,stimuli/bead_b.PNG,stimuli/bead_g.PNG,stimuli/bead_b.PNG,stimuli/bead_b.PNG,0,1,left,,,,,,,,,,,,,,,,,,,,,,,,,,,,,,,,,,,,,
,,,,A,2024-05-08_11h18.39.553,Fish Game,2023.1.3,MacIntel,60.97560976,,,,699.6997,5,up,0.5506,,0,0,5,5,5,1,6,stimuli/bead_y.PNG,stimuli/bead_b.PNG,stimuli/bead_b.PNG,stimuli/bead_g.PNG,stimuli/bead_b.PNG,0,1,left,,,,,,,,,,,,,,,,,,,,,,,,,,,,,,,,,,,,,
,,,,A,2024-05-08_11h18.39.553,Fish Game,2023.1.3,MacIntel,60.97560976,,,,702.5701,6,right,0.5991,,0,0,6,6,6,1,7,stimuli/bead_b.PNG,stimuli/bead_y.PNG,stimuli/bead_b.PNG,stimuli/bead_b.PNG,stimuli/bead_g.PNG,0,1,left,,,,,,,,,,,,,,,,,,,,,,,,,,,,,,,,,,,,,
,,,,A,2024-05-08_11h18.39.553,Fish Game,2023.1.3,MacIntel,60.97560976,,,,705.5025,7,up,0.5605,,1,0,7,7,7,1,8,stimuli/bead_y.PNG,stimuli/bead_b.PNG,stimuli/bead_y.PNG,stimuli/bead_b.PNG,stimuli/bead_b.PNG,1,2,up,,,,,,,,,,,,,,,,,,,,,,,,,,,,,,,,,,,,,
,,,,A,2024-05-08_11h18.39.553,Fish Game,2023.1.3,MacIntel,60.97560976,,,,708.0723,8,up,0.5321,,1,0,8,8,8,1,9,stimuli/bead_y.PNG,stimuli/bead_y.PNG,stimuli/bead_b.PNG,stimuli/bead_y.PNG,stimuli/bead_b.PNG,1,2,up,,,,,,,,,,,,,,,,,,,,,,,,,,,,,,,,,,,,,
,,,,A,2024-05-08_11h18.39.553,Fish Game,2023.1.3,MacIntel,60.97560976,,,,710.9222,9,up,0.5498,,1,0,9,9,9,1,10,stimuli/bead_b.PNG,stimuli/bead_y.PNG,stimuli/bead_y.PNG,stimuli/bead_b.PNG,stimuli/bead_y.PNG,1,2,up,,,,,,,,,,,,,,,,,,,,,,,,,,,,,,,,,,,,,
,,,,A,2024-05-08_11h18.39.553,Fish Game,2023.1.3,MacIntel,60.97560976,,,,712.807,10,up,0.5679,,1,0,10,10,10,1,11,stimuli/bead_y.PNG,stimuli/bead_b.PNG,stimuli/bead_y.PNG,stimuli/bead_y.PNG,stimuli/bead_b.PNG,1,2,up,,,,,,,,,,,,,,,,,,,,,,,,,,,,,,,,,,,,,
,,,,A,2024-05-08_11h18.39.553,Fish Game,2023.1.3,MacIntel,60.97560976,,,,714.7081,11,up,0.5986,,1,0,11,11,11,1,12,stimuli/bead_y.PNG,stimuli/bead_y.PNG,stimuli/bead_b.PNG,stimuli/bead_y.PNG,stimuli/bead_y.PNG,1,2,up,,,,,,,,,,,,,,,,,,,,,,,,,,,,,,,,,,,,,
,,,,A,2024-05-08_11h18.39.553,Fish Game,2023.1.3,MacIntel,60.97560976,,,,717.6259,12,up,0.5604,,1,0,12,12,12,1,13,stimuli/bead_b.PNG,stimuli/bead_y.PNG,stimuli/bead_y.PNG,stimuli/bead_b.PNG,stimuli/bead_y.PNG,1,2,up,,,,,,,,,,,,,,,,,,,,,,,,,,,,,,,,,,,,,
,,,,A,2024-05-08_11h18.39.553,Fish Game,2023.1.3,MacIntel,60.97560976,,,,719.4872,13,up,0.5869,,1,0,13,13,13,1,14,stimuli/bead_y.PNG,stimuli/bead_b.PNG,stimuli/bead_y.PNG,stimuli/bead_y.PNG,stimuli/bead_b.PNG,1,2,up,,,,,,,,,,,,,,,,,,,,,,,,,,,,,,,,,,,,,
,,,,A,2024-05-08_11h18.39.553,Fish Game,2023.1.3,MacIntel,60.97560976,,,,721.3953,14,up,0.5767,,1,0,14,14,14,1,15,stimuli/bead_y.PNG,stimuli/bead_y.PNG,stimuli/bead_b.PNG,stimuli/bead_y.PNG,stimuli/bead_y.PNG,1,2,up,,,,,,,,,,,,,,,,,,,,,,,,,,,,,,,,,,,,,
,,,,A,2024-05-08_11h18.39.553,Fish Game,2023.1.3,MacIntel,60.97560976,,,,728.308,0,right,0.7467,,1,0,0,0,0,1,1,stimuli/bead_g.PNG,stimuli/blank.jpg,stimuli/blank.jpg,stimuli/blank.jpg,stimuli/blank.jpg,2,3,right,,,,,,,,,,,,,,,,,,,,,,,,,,,,,,,,,,,,,
,,,,A,2024-05-08_11h18.39.553,Fish Game,2023.1.3,MacIntel,60.97560976,,,,730.3659,1,right,0.9673,,1,0,1,1,1,1,2,stimuli/bead_g.PNG,stimuli/bead_g.PNG,stimuli/blank.jpg,stimuli/blank.jpg,stimuli/blank.jpg,2,3,right,,,,,,,,,,,,,,,,,,,,,,,,,,,,,,,,,,,,,
,,,,A,2024-05-08_11h18.39.553,Fish Game,2023.1.3,MacIntel,60.97560976,,,,732.651,2,right,0.5115,,1,0,2,2,2,1,3,stimuli/bead_b.PNG,stimuli/bead_g.PNG,stimuli/bead_g.PNG,stimuli/blank.jpg,stimuli/blank.jpg,2,3,right,,,,,,,,,,,,,,,,,,,,,,,,,,,,,,,,,,,,,
,,,,A,2024-05-08_11h18.39.553,Fish Game,2023.1.3,MacIntel,60.97560976,,,,734.4696,3,right,0.6002,,1,0,3,3,3,1,4,stimuli/bead_g.PNG,stimuli/bead_b.PNG,stimuli/bead_g.PNG,stimuli/bead_g.PNG,stimuli/blank.jpg,2,3,right,,,,,,,,,,,,,,,,,,,,,,,,,,,,,,,,,,,,,
,,,,A,2024-05-08_11h18.39.553,Fish Game,2023.1.3,MacIntel,60.97560976,,,,736.9045,4,right,0.5692,,1,0,4,4,4,1,5,stimuli/bead_b.PNG,stimuli/bead_g.PNG,stimuli/bead_b.PNG,stimuli/bead_g.PNG,stimuli/bead_g.PNG,2,3,right,,,,,,,,,,,,,,,,,,,,,,,,,,,,,,,,,,,,,
,,,,A,2024-05-08_11h18.39.553,Fish Game,2023.1.3,MacIntel,60.97560976,,,,739.7895,5,right,0.5663,,1,0,5,5,5,1,6,stimuli/bead_g.PNG,stimuli/bead_b.PNG,stimuli/bead_g.PNG,stimuli/bead_b.PNG,stimuli/bead_g.PNG,2,3,right,,,,,,,,,,,,,,,,,,,,,,,,,,,,,,,,,,,,,
,,,,A,2024-05-08_11h18.39.553,Fish Game,2023.1.3,MacIntel,60.97560976,,,,742.6743,6,right,0.6262,,1,0,6,6,6,1,7,stimuli/bead_g.PNG,stimuli/bead_g.PNG,stimuli/bead_b.PNG,stimuli/bead_g.PNG,stimuli/bead_b.PNG,2,3,right,,,,,,,,,,,,,,,,,,,,,,,,,,,,,,,,,,,,,
,,,,A,2024-05-08_11h18.39.553,Fish Game,2023.1.3,MacIntel,60.97560976,,,,745.609,7,right,0.546,,1,0,7,7,7,1,8,stimuli/bead_g.PNG,stimuli/bead_g.PNG,stimuli/bead_g.PNG,stimuli/bead_b.PNG,stimuli/bead_g.PNG,2,3,right,,,,,,,,,,,,,,,,,,,,,,,,,,,,,,,,,,,,,
,,,,A,2024-05-08_11h18.39.553,Fish Game,2023.1.3,MacIntel,60.97560976,,,,748.4622,8,right,0.6442,,0,0,8,8,8,1,9,stimuli/bead_y.PNG,stimuli/bead_g.PNG,stimuli/bead_g.PNG,stimuli/bead_g.PNG,stimuli/bead_b.PNG,1,2,up,,,,,,,,,,,,,,,,,,,,,,,,,,,,,,,,,,,,,
,,,,A,2024-05-08_11h18.39.553,Fish Game,2023.1.3,MacIntel,60.97560976,,,,750.9284,9,up,0.5698,,1,0,9,9,9,1,10,stimuli/bead_y.PNG,stimuli/bead_y.PNG,stimuli/bead_g.PNG,stimuli/bead_g.PNG,stimuli/bead_g.PNG,1,2,up,,,,,,,,,,,,,,,,,,,,,,,,,,,,,,,,,,,,,
,,,,A,2024-05-08_11h18.39.553,Fish Game,2023.1.3,MacIntel,60.97560976,,,,753.3131,10,up,0.5525,,1,0,10,10,10,1,11,stimuli/bead_y.PNG,stimuli/bead_y.PNG,stimuli/bead_y.PNG,stimuli/bead_g.PNG,stimuli/bead_g.PNG,1,2,up,,,,,,,,,,,,,,,,,,,,,,,,,,,,,,,,,,,,,
,,,,A,2024-05-08_11h18.39.553,Fish Game,2023.1.3,MacIntel,60.97560976,,,,755.68,11,up,0.542,,1,0,11,11,11,1,12,stimuli/bead_g.PNG,stimuli/bead_y.PNG,stimuli/bead_y.PNG,stimuli/bead_y.PNG,stimuli/bead_g.PNG,1,2,up,,,,,,,,,,,,,,,,,,,,,,,,,,,,,,,,,,,,,
,,,,A,2024-05-08_11h18.39.553,Fish Game,2023.1.3,MacIntel,60.97560976,,,,757.5151,12,up,0.568,,1,0,12,12,12,1,13,stimuli/bead_y.PNG,stimuli/bead_g.PNG,stimuli/bead_y.PNG,stimuli/bead_y.PNG,stimuli/bead_y.PNG,1,2,up,,,,,,,,,,,,,,,,,,,,,,,,,,,,,,,,,,,,,
,,,,A,2024-05-08_11h18.39.553,Fish Game,2023.1.3,MacIntel,60.97560976,,,,759.4161,13,up,0.5571,,1,0,13,13,13,1,14,stimuli/bead_y.PNG,stimuli/bead_y.PNG,stimuli/bead_g.PNG,stimuli/bead_y.PNG,stimuli/bead_y.PNG,1,2,up,,,,,,,,,,,,,,,,,,,,,,,,,,,,,,,,,,,,,
,,,,A,2024-05-08_11h18.39.553,Fish Game,2023.1.3,MacIntel,60.97560976,,,,762.2844,14,up,0.6354,,1,0,14,14,14,1,15,stimuli/bead_b.PNG,stimuli/bead_y.PNG,stimuli/bead_y.PNG,stimuli/bead_g.PNG,stimuli/bead_y.PNG,1,2,up,,,,,,,,,,,,,,,,,,,,,,,,,,,,,,,,,,,,,
,,,,A,2024-05-08_11h18.39.553,Fish Game,2023.1.3,MacIntel,60.97560976,,,,,,,,,,,,,,,1,,,,,,,,,space,2.0886,,1,1condition/mainTrials1.xlsx,772.369,0,right,0.7344,0.0009,1,0.5,773.6265,0,0,0,0,1,stimuli/bead_g.PNG,stimuli/blank.jpg,stimuli/blank.jpg,stimuli/blank.jpg,stimuli/blank.jpg,2,3,right,,,,,,,,,,,
,,,,A,2024-05-08_11h18.39.553,Fish Game,2023.1.3,MacIntel,60.97560976,,,,,,,,,,,,,,,2,,,,,,,,,,,,,,774.1241,1,right,0.6181,,1,0.5,775.2586,0,1,1,1,1,stimuli/bead_y.PNG,stimuli/bead_g.PNG,stimuli/blank.jpg,stimuli/blank.jpg,stimuli/blank.jpg,2,3,right,,,,,,,,,,,
,,,,A,2024-05-08_11h18.39.553,Fish Game,2023.1.3,MacIntel,60.97560976,,,,,,,,,,,,,,,3,,,,,,,,,,,,,,775.759,2,right,0.6233,,1,0.5,776.8931,0,2,2,2,1,stimuli/bead_g.PNG,stimuli/bead_y.PNG,stimuli/bead_g.PNG,stimuli/blank.jpg,stimuli/blank.jpg,2,3,right,,,,,,,,,,,
,,,,A,2024-05-08_11h18.39.553,Fish Game,2023.1.3,MacIntel,60.97560976,,,,,,,,,,,,,,,4,,,,,,,,,,,,,,777.3951,3,right,0.5629,,1,0.5,778.4937,0,3,3,3,1,stimuli/bead_b.PNG,stimuli/bead_g.PNG,stimuli/bead_y.PNG,stimuli/bead_g.PNG,stimuli/blank.jpg,2,3,right,,,,,,,,,,,
,,,,A,2024-05-08_11h18.39.553,Fish Game,2023.1.3,MacIntel,60.97560976,,,,,,,,,,,,,,,5,,,,,,,,,,,,,,778.9935,4,right,0.5278,,1,1,780.5274,0,4,4,4,1,stimuli/bead_g.PNG,stimuli/bead_b.PNG,stimuli/bead_g.PNG,stimuli/bead_y.PNG,stimuli/bead_g.PNG,2,3,right,,,,,,,,,,,
,,,,A,2024-05-08_11h18.39.553,Fish Game,2023.1.3,MacIntel,60.97560976,,,,,,,,,,,,,,,6,,,,,,,,,,,,,,781.0282,5,right,0.5182,,1,1,782.5795,0,5,5,5,1,stimuli/bead_g.PNG,stimuli/bead_g.PNG,stimuli/bead_b.PNG,stimuli/bead_g.PNG,stimuli/bead_y.PNG,2,3,right,,,,,,,,,,,
,,,,A,2024-05-08_11h18.39.553,Fish Game,2023.1.3,MacIntel,60.97560976,,,,,,,,,,,,,,,7,,,,,,,,,,,,,,783.0789,6,right,0.7302,,1,1.5,785.3144,0,6,6,6,1,stimuli/bead_g.PNG,stimuli/bead_g.PNG,stimuli/bead_g.PNG,stimuli/bead_b.PNG,stimuli/bead_g.PNG,2,3,right,,,,,,,,,,,
,,,,A,2024-05-08_11h18.39.553,Fish Game,2023.1.3,MacIntel,60.97560976,,,,,,,,,,,,,,,8,,,,,,,,,,,,,,785.8149,7,right,0.6151,,1,0.5,786.9479,0,7,7,7,1,stimuli/bead_g.PNG,stimuli/bead_g.PNG,stimuli/bead_g.PNG,stimuli/bead_g.PNG,stimuli/bead_b.PNG,2,3,right,,,,,,,,,,,
,,,,A,2024-05-08_11h18.39.553,Fish Game,2023.1.3,MacIntel,60.97560976,,,,,,,,,,,,,,,9,,,,,,,,,,,,,,787.4496,8,right,0.5329,,1,1.5,789.5,0,8,8,8,1,stimuli/bead_b.PNG,stimuli/bead_g.PNG,stimuli/bead_g.PNG,stimuli/bead_g.PNG,stimuli/bead_g.PNG,2,3,right,,,,,,,,,,,
,,,,A,2024-05-08_11h18.39.553,Fish Game,2023.1.3,MacIntel,60.97560976,,,,,,,,,,,,,,,10,,,,,,,,,,,,,,790,9,right,0.8143,,1,1,791.8343,0,9,9,9,1,stimuli/bead_g.PNG,stimuli/bead_b.PNG,stimuli/bead_g.PNG,stimuli/bead_g.PNG,stimuli/bead_g.PNG,2,3,right,,,,,,,,,,,
,,,,A,2024-05-08_11h18.39.553,Fish Game,2023.1.3,MacIntel,60.97560976,,,,,,,,,,,,,,,11,,,,,,,,,,,,,,792.3346,10,right,0.5005,,1,1,793.8527,0,10,10,10,1,stimuli/bead_g.PNG,stimuli/bead_g.PNG,stimuli/bead_b.PNG,stimuli/bead_g.PNG,stimuli/bead_g.PNG,2,3,right,,,,,,,,,,,
,,,,A,2024-05-08_11h18.39.553,Fish Game,2023.1.3,MacIntel,60.97560976,,,,,,,,,,,,,,,12,,,,,,,,,,,,,,794.3543,11,right,0.5037,,1,0.5,795.3857,0,11,11,11,1,stimuli/bead_g.PNG,stimuli/bead_g.PNG,stimuli/bead_g.PNG,stimuli/bead_b.PNG,stimuli/bead_g.PNG,2,3,right,,,,,,,,,,,
,,,,A,2024-05-08_11h18.39.553,Fish Game,2023.1.3,MacIntel,60.97560976,,,,,,,,,,,,,,,13,,,,,,,,,,,,,,795.8863,12,right,0.575,,0,1,797.4704,0,12,12,12,1,stimuli/bead_b.PNG,stimuli/bead_g.PNG,stimuli/bead_g.PNG,stimuli/bead_g.PNG,stimuli/bead_b.PNG,0,1,left,,,,,,,,,,,
,,,,A,2024-05-08_11h18.39.553,Fish Game,2023.1.3,MacIntel,60.97560976,,,,,,,,,,,,,,,14,,,,,,,,,,,,,,797.9716,13,up,0.5808,,0,1,799.5715,0,13,13,13,1,stimuli/bead_b.PNG,stimuli/bead_b.PNG,stimuli/bead_g.PNG,stimuli/bead_g.PNG,stimuli/bead_g.PNG,0,1,left,,,,,,,,,,,
,,,,A,2024-05-08_11h18.39.553,Fish Game,2023.1.3,MacIntel,60.97560976,,,,,,,,,,,,,,,15,,,,,,,,,,,,,,800.072,14,left,0.531,,1,1.5,802.1236,0,14,14,14,1,stimuli/bead_b.PNG,stimuli/bead_b.PNG,stimuli/bead_b.PNG,stimuli/bead_g.PNG,stimuli/bead_g.PNG,0,1,left,,,,,,,,,,,
,,,,A,2024-05-08_11h18.39.553,Fish Game,2023.1.3,MacIntel,60.97560976,,,,,,,,,,,,,,,1,,,,,,,,,,,,2,1condition/mainTrials2.xlsx,807.6366,0,up,0.5215,,1,1,809.1736,0,0,0,0,1,stimuli/bead_y.PNG,stimuli/blank.jpg,stimuli/blank.jpg,stimuli/blank.jpg,stimuli/blank.jpg,1,2,up,[13],,,,,,,,,,
,,,,A,2024-05-08_11h18.39.553,Fish Game,2023.1.3,MacIntel,60.97560976,,,,,,,,,,,,,,,2,,,,,,,,,,,,,,809.6728,1,up,0.5645,,1,0.5,810.7612,0,1,1,1,1,stimuli/bead_b.PNG,stimuli/bead_y.PNG,stimuli/blank.jpg,stimuli/blank.jpg,stimuli/blank.jpg,1,2,up,,,,,,,,,,,
,,,,A,2024-05-08_11h18.39.553,Fish Game,2023.1.3,MacIntel,60.97560976,,,,,,,,,,,,,,,3,,,,,,,,,,,,,,811.2508,2,up,0.734,,1,0.5,812.513,0,2,2,2,1,stimuli/bead_y.PNG,stimuli/bead_b.PNG,stimuli/bead_y.PNG,stimuli/blank.jpg,stimuli/blank.jpg,1,2,up,,,,,,,,,,,
,,,,A,2024-05-08_11h18.39.553,Fish Game,2023.1.3,MacIntel,60.97560976,,,,,,,,,,,,,,,4,,,,,,,,,,,,,,813.0127,3,up,0.7188,,1,1.5,815.248,0,3,3,3,1,stimuli/bead_y.PNG,stimuli/bead_y.PNG,stimuli/bead_b.PNG,stimuli/bead_y.PNG,stimuli/blank.jpg,1,2,up,,,,,,,,,,,
,,,,A,2024-05-08_11h18.39.553,Fish Game,2023.1.3,MacIntel,60.97560976,,,,,,,,,,,,,,,5,,,,,,,,,,,,,,815.749,4,up,0.5101,,1,0.5,816.7649,0,4,4,4,1,stimuli/bead_g.PNG,stimuli/bead_y.PNG,stimuli/bead_y.PNG,stimuli/bead_b.PNG,stimuli/bead_y.PNG,1,2,up,,,,,,,,,,,
,,,,A,2024-05-08_11h18.39.553,Fish Game,2023.1.3,MacIntel,60.97560976,,,,,,,,,,,,,,,6,,,,,,,,,,,,,,817.2674,5,up,0.739,,1,0.5,818.5336,0,5,5,5,1,stimuli/bead_y.PNG,stimuli/bead_g.PNG,stimuli/bead_y.PNG,stimuli/bead_y.PNG,stimuli/bead_b.PNG,1,2,up,,,,,,,,,,,
,,,,A,2024-05-08_11h18.39.553,Fish Game,2023.1.3,MacIntel,60.97560976,,,,,,,,,,,,,,,7,,,,,,,,,,,,,,819.0344,6,up,0.5538,,0,0.5,820.1067,0,6,6,6,1,stimuli/bead_b.PNG,stimuli/bead_y.PNG,stimuli/bead_g.PNG,stimuli/bead_y.PNG,stimuli/bead_y.PNG,0,1,left,,,,,,,,,,,
,,,,A,2024-05-08_11h18.39.553,Fish Game,2023.1.3,MacIntel,60.97560976,,,,,,,,,,,,,,,8,,,,,,,,,,,,,,820.6009,7,up,0.5402,,0,1,822.1674,0,7,7,7,1,stimuli/bead_b.PNG,stimuli/bead_b.PNG,stimuli/bead_y.PNG,stimuli/bead_g.PNG,stimuli/bead_y.PNG,0,1,left,,,,,,,,,,,
,,,,A,2024-05-08_11h18.39.553,Fish Game,2023.1.3,MacIntel,60.97560976,,,,,,,,,,,,,,,9,,,,,,,,,,,,,,822.6688,8,left,0.6079,,1,0.5,823.7863,0,8,8,8,1,stimuli/bead_y.PNG,stimuli/bead_b.PNG,stimuli/bead_b.PNG,stimuli/bead_y.PNG,stimuli/bead_g.PNG,0,1,left,,,,,,,,,,,
,,,,A,2024-05-08_11h18.39.553,Fish Game,2023.1.3,MacIntel,60.97560976,,,,,,,,,,,,,,,10,,,,,,,,,,,,,,824.287,9,left,0.5427,,1,0.5,825.353,0,9,9,9,1,stimuli/bead_b.PNG,stimuli/bead_y.PNG,stimuli/bead_b.PNG,stimuli/bead_b.PNG,stimuli/bead_y.PNG,0,1,left,,,,,,,,,,,
,,,,A,2024-05-08_11h18.39.553,Fish Game,2023.1.3,MacIntel,60.97560976,,,,,,,,,,,,,,,11,,,,,,,,,,,,,,825.854,10,left,0.5097,,1,1,827.3704,0,10,10,10,1,stimuli/bead_b.PNG,stimuli/bead_b.PNG,stimuli/bead_y.PNG,stimuli/bead_b.PNG,stimuli/bead_b.PNG,0,1,left,,,,,,,,,,,
,,,,A,2024-05-08_11h18.39.553,Fish Game,2023.1.3,MacIntel,60.97560976,,,,,,,,,,,,,,,12,,,,,,,,,,,,,,827.872,11,left,0.5467,,1,1,829.4555,0,11,11,11,1,stimuli/bead_b.PNG,stimuli/bead_b.PNG,stimuli/bead_b.PNG,stimuli/bead_y.PNG,stimuli/bead_b.PNG,0,1,left,,,,,,,,,,,
,,,,A,2024-05-08_11h18.39.553,Fish Game,2023.1.3,MacIntel,60.97560976,,,,,,,,,,,,,,,13,,,,,,,,,,,,,,829.9553,12,left,0.5829,,1,1,831.5567,0,12,12,12,1,stimuli/bead_g.PNG,stimuli/bead_b.PNG,stimuli/bead_b.PNG,stimuli/bead_b.PNG,stimuli/bead_y.PNG,0,1,left,,,,,,,,,,,
,,,,A,2024-05-08_11h18.39.553,Fish Game,2023.1.3,MacIntel,60.97560976,,,,,,,,,,,,,,,14,,,,,,,,,,,,,,832.057,13,left,0.6022,,1,1,833.6746,0,13,13,13,1,stimuli/bead_b.PNG,stimuli/bead_g.PNG,stimuli/bead_b.PNG,stimuli/bead_b.PNG,stimuli/bead_b.PNG,0,1,left,,,,,,,,,,,
,,,,A,2024-05-08_11h18.39.553,Fish Game,2023.1.3,MacIntel,60.97560976,,,,,,,,,,,,,,,15,,,,,,,,,,,,,,834.1748,14,left,0.6506,,1,0.5,835.3422,0,14,14,14,1,stimuli/bead_b.PNG,stimuli/bead_b.PNG,stimuli/bead_g.PNG,stimuli/bead_b.PNG,stimuli/bead_b.PNG,0,1,left,,,,,,,,,,,
,,,,A,2024-05-08_11h18.39.553,Fish Game,2023.1.3,MacIntel,60.97560976,,,,,,,,,,,,,,,1,,,,,,,,,,,,3,1condition/mainTrials3.xlsx,840.853,0,up,0.7447,,1,0.5,842.1122,0,0,0,0,1,stimuli/bead_y.PNG,stimuli/blank.jpg,stimuli/blank.jpg,stimuli/blank.jpg,stimuli/blank.jpg,1,2,up,"[13,13]",,,,,,,,,,
,,,,A,2024-05-08_11h18.39.553,Fish Game,2023.1.3,MacIntel,60.97560976,,,,,,,,,,,,,,,2,,,,,,,,,,,,,,842.6127,1,up,0.5795,,1,1.5,844.6968,0,1,1,1,1,stimuli/bead_y.PNG,stimuli/bead_y.PNG,stimuli/blank.jpg,stimuli/blank.jpg,stimuli/blank.jpg,1,2,up,,,,,,,,,,,
,,,,A,2024-05-08_11h18.39.553,Fish Game,2023.1.3,MacIntel,60.97560976,,,,,,,,,,,,,,,3,,,,,,,,,,,,,,845.1981,2,up,0.5103,,1,1.5,847.2155,0,2,2,2,1,stimuli/bead_b.PNG,stimuli/bead_y.PNG,stimuli/bead_y.PNG,stimuli/blank.jpg,stimuli/blank.jpg,1,2,up,,,,,,,,,,,
,,,,A,2024-05-08_11h18.39.553,Fish Game,2023.1.3,MacIntel,60.97560976,,,,,,,,,,,,,,,4,,,,,,,,,,,,,,847.7168,3,up,0.5437,,1,1.5,849.7672,0,3,3,3,1,stimuli/bead_y.PNG,stimuli/bead_b.PNG,stimuli/bead_y.PNG,stimuli/bead_y.PNG,stimuli/blank.jpg,1,2,up,,,,,,,,,,,
,,,,A,2024-05-08_11h18.39.553,Fish Game,2023.1.3,MacIntel,60.97560976,,,,,,,,,,,,,,,5,,,,,,,,,,,,,,850.2679,4,up,0.5006,,1,1.5,852.2858,0,4,4,4,1,stimuli/bead_y.PNG,stimuli/bead_y.PNG,stimuli/bead_b.PNG,stimuli/bead_y.PNG,stimuli/bead_y.PNG,1,2,up,,,,,,,,,,,
,,,,A,2024-05-08_11h18.39.553,Fish Game,2023.1.3,MacIntel,60.97560976,,,,,,,,,,,,,,,6,,,,,,,,,,,,,,852.786,5,up,0.6471,,1,1,854.4523,0,5,5,5,1,stimuli/bead_y.PNG,stimuli/bead_y.PNG,stimuli/bead_y.PNG,stimuli/bead_b.PNG,stimuli/bead_y.PNG,1,2,up,,,,,,,,,,,
,,,,A,2024-05-08_11h18.39.553,Fish Game,2023.1.3,MacIntel,60.97560976,,,,,,,,,,,,,,,7,,,,,,,,,,,,,,854.9534,6,up,0.6136,,1,0.5,856.0873,0,6,6,6,1,stimuli/bead_b.PNG,stimuli/bead_y.PNG,stimuli/bead_y.PNG,stimuli/bead_y.PNG,stimuli/bead_b.PNG,1,2,up,,,,,,,,,,,
,,,,A,2024-05-08_11h18.39.553,Fish Game,2023.1.3,MacIntel,60.97560976,,,,,,,,,,,,,,,8,,,,,,,,,,,,,,856.5891,7,up,0.5463,,1,0.5,857.6717,0,7,7,7,1,stimuli/bead_y.PNG,stimuli/bead_b.PNG,stimuli/bead_y.PNG,stimuli/bead_y.PNG,stimuli/bead_y.PNG,1,2,up,,,,,,,,,,,
,,,,A,2024-05-08_11h18.39.553,Fish Game,2023.1.3,MacIntel,60.97560976,,,,,,,,,,,,,,,9,,,,,,,,,,,,,,858.172,8,up,0.5615,,1,0.5,859.2392,0,8,8,8,1,stimuli/bead_y.PNG,stimuli/bead_y.PNG,stimuli/bead_b.PNG,stimuli/bead_y.PNG,stimuli/bead_y.PNG,1,2,up,,,,,,,,,,,
,,,,A,2024-05-08_11h18.39.553,Fish Game,2023.1.3,MacIntel,60.97560976,,,,,,,,,,,,,,,10,,,,,,,,,,,,,,859.7395,9,up,0.779,,1,0.5,861.0238,0,9,9,9,1,stimuli/bead_g.PNG,stimuli/bead_y.PNG,stimuli/bead_y.PNG,stimuli/bead_b.PNG,stimuli/bead_y.PNG,1,2,up,,,,,,,,,,,
,,,,A,2024-05-08_11h18.39.553,Fish Game,2023.1.3,MacIntel,60.97560976,,,,,,,,,,,,,,,11,,,,,,,,,,,,,,861.5321,10,up,0.5341,,1,0.5,862.5903,0,10,10,10,1,stimuli/bead_y.PNG,stimuli/bead_g.PNG,stimuli/bead_y.PNG,stimuli/bead_y.PNG,stimuli/bead_b.PNG,1,2,up,,,,,,,,,,,
,,,,A,2024-05-08_11h18.39.553,Fish Game,2023.1.3,MacIntel,60.97560976,,,,,,,,,,,,,,,12,,,,,,,,,,,,,,863.0917,11,up,0.5591,,1,1,864.6585,0,11,11,11,1,stimuli/bead_g.PNG,stimuli/bead_y.PNG,stimuli/bead_g.PNG,stimuli/bead_y.PNG,stimuli/bead_y.PNG,1,2,up,,,,,,,,,,,
,,,,A,2024-05-08_11h18.39.553,Fish Game,2023.1.3,MacIntel,60.97560976,,,,,,,,,,,,,,,13,,,,,,,,,,,,,,865.1584,12,up,0.6486,,1,0.5,866.3264,0,12,12,12,1,stimuli/bead_y.PNG,stimuli/bead_g.PNG,stimuli/bead_y.PNG,stimuli/bead_g.PNG,stimuli/bead_y.PNG,1,2,up,,,,,,,,,,,
,,,,A,2024-05-08_11h18.39.553,Fish Game,2023.1.3,MacIntel,60.97560976,,,,,,,,,,,,,,,14,,,,,,,,,,,,,,866.8264,13,up,0.5874,,1,1.5,868.9279,0,13,13,13,1,stimuli/bead_y.PNG,stimuli/bead_y.PNG,stimuli/bead_g.PNG,stimuli/bead_y.PNG,stimuli/bead_g.PNG,1,2,up,,,,,,,,,,,
,,,,A,2024-05-08_11h18.39.553,Fish Game,2023.1.3,MacIntel,60.97560976,,,,,,,,,,,,,,,15,,,,,,,,,,,,,,869.4281,14,up,0.5282,,1,1.5,871.4713,0,14,14,14,1,stimuli/bead_y.PNG,stimuli/bead_y.PNG,stimuli/bead_y.PNG,stimuli/bead_g.PNG,stimuli/bead_y.PNG,1,2,up,,,,,,,,,,,
,,,,A,2024-05-08_11h18.39.553,Fish Game,2023.1.3,MacIntel,60.97560976,,,,,,,,,,,,,,,1,,,,,,,,,,,,4,1condition/mainTrials4.xlsx,876.9744,0,right,0.6613,,1,0.5,878.1489,0,0,0,0,1,stimuli/bead_g.PNG,stimuli/blank.jpg,stimuli/blank.jpg,stimuli/blank.jpg,stimuli/blank.jpg,2,3,right,"[13,13,15]",,,,,,,,,,
,,,,A,2024-05-08_11h18.39.553,Fish Game,2023.1.3,MacIntel,60.97560976,,,,,,,,,,,,,,,2,,,,,,,,,,,,,,878.6501,1,right,0.8009,,1,1.5,880.9689,0,1,1,1,1,stimuli/bead_g.PNG,stimuli/bead_g.PNG,stimuli/blank.jpg,stimuli/blank.jpg,stimuli/blank.jpg,2,3,right,,,,,,,,,,,
,,,,A,2024-05-08_11h18.39.553,Fish Game,2023.1.3,MacIntel,60.97560976,,,,,,,,,,,,,,,3,,,,,,,,,,,,,,881.4689,2,right,0.6667,,1,1.5,883.6534,0,2,2,2,1,stimuli/bead_b.PNG,stimuli/bead_g.PNG,stimuli/bead_g.PNG,stimuli/blank.jpg,stimuli/blank.jpg,2,3,right,,,,,,,,,,,
,,,,A,2024-05-08_11h18.39.553,Fish Game,2023.1.3,MacIntel,60.97560976,,,,,,,,,,,,,,,4,,,,,,,,,,,,,,884.1537,3,right,0.5604,,1,0.5,885.2194,0,3,3,3,1,stimuli/bead_g.PNG,stimuli/bead_b.PNG,stimuli/bead_g.PNG,stimuli/bead_g.PNG,stimuli/blank.jpg,2,3,right,,,,,,,,,,,
,,,,A,2024-05-08_11h18.39.553,Fish Game,2023.1.3,MacIntel,60.97560976,,,,,,,,,,,,,,,5,,,,,,,,,,,,,,885.7199,4,right,0.766,,1,0.5,887.0053,0,4,4,4,1,stimuli/bead_g.PNG,stimuli/bead_g.PNG,stimuli/bead_b.PNG,stimuli/bead_g.PNG,stimuli/bead_g.PNG,2,3,right,,,,,,,,,,,
,,,,A,2024-05-08_11h18.39.553,Fish Game,2023.1.3,MacIntel,60.97560976,,,,,,,,,,,,,,,6,,,,,,,,,,,,,,887.5645,5,right,0.5861,,1,1.5,889.6731,0,5,5,5,1,stimuli/bead_y.PNG,stimuli/bead_g.PNG,stimuli/bead_g.PNG,stimuli/bead_b.PNG,stimuli/bead_g.PNG,2,3,right,,,,,,,,,,,
,,,,A,2024-05-08_11h18.39.553,Fish Game,2023.1.3,MacIntel,60.97560976,,,,,,,,,,,,,,,7,,,,,,,,,,,,,,890.1739,6,right,0.6486,,1,1.5,892.3401,0,6,6,6,1,stimuli/bead_g.PNG,stimuli/bead_y.PNG,stimuli/bead_g.PNG,stimuli/bead_g.PNG,stimuli/bead_b.PNG,2,3,right,,,,,,,,,,,
,,,,A,2024-05-08_11h18.39.553,Fish Game,2023.1.3,MacIntel,60.97560976,,,,,,,,,,,,,,,8,,,,,,,,,,,,,,892.8413,7,right,0.5603,,0,1.5,894.9085,0,7,7,7,1,stimuli/bead_y.PNG,stimuli/bead_g.PNG,stimuli/bead_y.PNG,stimuli/bead_g.PNG,stimuli/bead_g.PNG,1,2,up,,,,,,,,,,,
,,,,A,2024-05-08_11h18.39.553,Fish Game,2023.1.3,MacIntel,60.97560976,,,,,,,,,,,,,,,9,,,,,,,,,,,,,,895.4096,8,up,0.5594,,1,1.5,897.4764,0,8,8,8,1,stimuli/bead_y.PNG,stimuli/bead_y.PNG,stimuli/bead_g.PNG,stimuli/bead_y.PNG,stimuli/bead_g.PNG,1,2,up,,,,,,,,,,,
,,,,A,2024-05-08_11h18.39.553,Fish Game,2023.1.3,MacIntel,60.97560976,,,,,,,,,,,,,,,10,,,,,,,,,,,,,,897.9773,9,up,0.5401,,1,0.5,899.0448,0,9,9,9,1,stimuli/bead_g.PNG,stimuli/bead_y.PNG,stimuli/bead_y.PNG,stimuli/bead_g.PNG,stimuli/bead_y.PNG,1,2,up,,,,,,,,,,,
,,,,A,2024-05-08_11h18.39.553,Fish Game,2023.1.3,MacIntel,60.97560976,,,,,,,,,,,,,,,11,,,,,,,,,,,,,,899.5451,10,up,0.5506,,1,1.5,901.6129,0,10,10,10,1,stimuli/bead_y.PNG,stimuli/bead_g.PNG,stimuli/bead_y.PNG,stimuli/bead_y.PNG,stimuli/bead_g.PNG,1,2,up,,,,,,,,,,,
,,,,A,2024-05-08_11h18.39.553,Fish Game,2023.1.3,MacIntel,60.97560976,,,,,,,,,,,,,,,12,,,,,,,,,,,,,,902.1133,11,up,0.6615,,1,1.5,904.2801,0,11,11,11,1,stimuli/bead_y.PNG,stimuli/bead_y.PNG,stimuli/bead_g.PNG,stimuli/bead_y.PNG,stimuli/bead_y.PNG,1,2,up,,,,,,,,,,,
,,,,A,2024-05-08_11h18.39.553,Fish Game,2023.1.3,MacIntel,60.97560976,,,,,,,,,,,,,,,13,,,,,,,,,,,,,,904.7814,12,up,0.5282,,1,0.5,905.8147,0,12,12,12,1,stimuli/bead_b.PNG,stimuli/bead_y.PNG,stimuli/bead_y.PNG,stimuli/bead_g.PNG,stimuli/bead_y.PNG,1,2,up,,,,,,,,,,,
,,,,A,2024-05-08_11h18.39.553,Fish Game,2023.1.3,MacIntel,60.97560976,,,,,,,,,,,,,,,14,,,,,,,,,,,,,,906.3147,13,up,0.5887,,1,1,907.9161,0,13,13,13,1,stimuli/bead_y.PNG,stimuli/bead_b.PNG,stimuli/bead_y.PNG,stimuli/bead_y.PNG,stimuli/bead_g.PNG,1,2,up,,,,,,,,,,,
,,,,A,2024-05-08_11h18.39.553,Fish Game,2023.1.3,MacIntel,60.97560976,,,,,,,,,,,,,,,15,,,,,,,,,,,,,,908.4165,14,up,0.534,,1,0.5,909.4719,0,14,14,14,1,stimuli/bead_y.PNG,stimuli/bead_y.PNG,stimuli/bead_b.PNG,stimuli/bead_y.PNG,stimuli/bead_y.PNG,1,2,up,,,,,,,,,,,
,,,,A,2024-05-08_11h18.39.553,Fish Game,2023.1.3,MacIntel,60.97560976,,,,,,,,,,,,,,,1,,,,,,,,,,,,5,1condition/mainTrials5.xlsx,914.9814,0,left,0.5694,0.0008,1,1,916.5714,0,0,0,0,1,stimuli/bead_b.PNG,stimuli/blank.jpg,stimuli/blank.jpg,stimuli/blank.jpg,stimuli/blank.jpg,0,1,left,"[13,13,15,14]",,,,,,,,,,
,,,,A,2024-05-08_11h18.39.553,Fish Game,2023.1.3,MacIntel,60.97560976,,,,,,,,,,,,,,,2,,,,,,,,,,,,,,917.0717,1,left,0.6427,,1,1,918.7219,0,1,1,1,1,stimuli/bead_b.PNG,stimuli/bead_b.PNG,stimuli/blank.jpg,stimuli/blank.jpg,stimuli/blank.jpg,0,1,left,,,,,,,,,,,
,,,,A,2024-05-08_11h18.39.553,Fish Game,2023.1.3,MacIntel,60.97560976,,,,,,,,,,,,,,,3,,,,,,,,,,,,,,919.2244,2,left,0.6713,,1,0.5,920.4232,0,2,2,2,1,stimuli/bead_y.PNG,stimuli/bead_b.PNG,stimuli/bead_b.PNG,stimuli/blank.jpg,stimuli/blank.jpg,0,1,left,,,,,,,,,,,
,,,,A,2024-05-08_11h18.39.553,Fish Game,2023.1.3,MacIntel,60.97560976,,,,,,,,,,,,,,,4,,,,,,,,,,,,,,920.926,3,left,0.5606,,1,1,922.5078,0,3,3,3,1,stimuli/bead_b.PNG,stimuli/bead_y.PNG,stimuli/bead_b.PNG,stimuli/bead_b.PNG,stimuli/blank.jpg,0,1,left,,,,,,,,,,,
,,,,A,2024-05-08_11h18.39.553,Fish Game,2023.1.3,MacIntel,60.97560976,,,,,,,,,,,,,,,5,,,,,,,,,,,,,,923.0074,4,left,0.5664,,1,0.5,924.0915,0,4,4,4,1,stimuli/bead_b.PNG,stimuli/bead_b.PNG,stimuli/bead_y.PNG,stimuli/bead_b.PNG,stimuli/bead_b.PNG,0,1,left,,,,,,,,,,,
,,,,A,2024-05-08_11h18.39.553,Fish Game,2023.1.3,MacIntel,60.97560976,,,,,,,,,,,,,,,6,,,,,,,,,,,,,,924.5919,5,left,0.5079,,0,1,926.1101,0,5,5,5,1,stimuli/bead_g.PNG,stimuli/bead_b.PNG,stimuli/bead_b.PNG,stimuli/bead_y.PNG,stimuli/bead_b.PNG,2,3,right,,,,,,,,,,,
,,,,A,2024-05-08_11h18.39.553,Fish Game,2023.1.3,MacIntel,60.97560976,,,,,,,,,,,,,,,7,,,,,,,,,,,,,,926.6115,6,right,0.6543,,1,1.5,928.7947,0,6,6,6,1,stimuli/bead_g.PNG,stimuli/bead_g.PNG,stimuli/bead_b.PNG,stimuli/bead_b.PNG,stimuli/bead_y.PNG,2,2,right,,,,,,,,,,,
,,,,A,2024-05-08_11h18.39.553,Fish Game,2023.1.3,MacIntel,60.97560976,,,,,,,,,,,,,,,8,,,,,,,,,,,,,,929.2949,7,right,0.5256,,1,1,930.8296,0,7,7,7,1,stimuli/bead_b.PNG,stimuli/bead_g.PNG,stimuli/bead_g.PNG,stimuli/bead_b.PNG,stimuli/bead_b.PNG,2,2,right,,,,,,,,,,,
,,,,A,2024-05-08_11h18.39.553,Fish Game,2023.1.3,MacIntel,60.97560976,,,,,,,,,,,,,,,9,,,,,,,,,,,,,,931.3293,8,right,0.5441,,1,1,932.8804,0,8,8,8,1,stimuli/bead_g.PNG,stimuli/bead_b.PNG,stimuli/bead_g.PNG,stimuli/bead_g.PNG,stimuli/bead_b.PNG,2,2,right,,,,,,,,,,,
,,,,A,2024-05-08_11h18.39.553,Fish Game,2023.1.3,MacIntel,60.97560976,,,,,,,,,,,,,,,10,,,,,,,,,,,,,,933.3806,9,right,1.9512,,1,1,936.3498,0,9,9,9,1,stimuli/bead_b.PNG,stimuli/bead_g.PNG,stimuli/bead_b.PNG,stimuli/bead_g.PNG,stimuli/bead_g.PNG,2,2,right,,,,,,,,,,,
,,,,A,2024-05-08_11h18.39.553,Fish Game,2023.1.3,MacIntel,60.97560976,,,,,,,,,,,,,,,11,,,,,,,,,,,,,,936.8501,10,right,0.6382,,1,1,938.5176,0,10,10,10,1,stimuli/bead_g.PNG,stimuli/bead_b.PNG,stimuli/bead_g.PNG,stimuli/bead_b.PNG,stimuli/bead_g.PNG,2,2,right,,,,,,,,,,,
,,,,A,2024-05-08_11h18.39.553,Fish Game,2023.1.3,MacIntel,60.97560976,,,,,,,,,,,,,,,12,,,,,,,,,,,,,,939.0172,11,right,0.5266,,1,0.5,940.0725,0,11,11,11,1,stimuli/bead_g.PNG,stimuli/bead_g.PNG,stimuli/bead_b.PNG,stimuli/bead_g.PNG,stimuli/bead_b.PNG,2,2,right,,,,,,,,,,,
,,,,A,2024-05-08_11h18.39.553,Fish Game,2023.1.3,MacIntel,60.97560976,,,,,,,,,,,,,,,13,,,,,,,,,,,,,,940.5685,12,right,0.6323,,1,0.5,941.7198,0,12,12,12,1,stimuli/bead_g.PNG,stimuli/bead_g.PNG,stimuli/bead_g.PNG,stimuli/bead_b.PNG,stimuli/bead_g.PNG,2,3,right,,,,,,,,,,,
,,,,A,2024-05-08_11h18.39.553,Fish Game,2023.1.3,MacIntel,60.97560976,,,,,,,,,,,,,,,14,,,,,,,,,,,,,,942.2123,13,right,1.4645,,1,0.5,944.2043,0,13,13,13,1,stimuli/bead_y.PNG,stimuli/bead_g.PNG,stimuli/bead_g.PNG,stimuli/bead_g.PNG,stimuli/bead_b.PNG,2,3,right,,,,,,,,,,,
,,,,A,2024-05-08_11h18.39.553,Fish Game,2023.1.3,MacIntel,60.97560976,,,,,,,,,,,,,,,15,,,,,,,,,,,,,,944.7054,14,right,0.6232,,1,1,946.3551,0,14,14,14,1,stimuli/bead_g.PNG,stimuli/bead_y.PNG,stimuli/bead_g.PNG,stimuli/bead_g.PNG,stimuli/bead_g.PNG,2,3,right,,,,,,,,,,,
,,,,A,2024-05-08_11h18.39.553,Fish Game,2023.1.3,MacIntel,60.97560976,,,,,,,,,,,,,,,1,,,,,,,,,,,,6,1condition/mainTrials6.xlsx,951.8652,0,left,1.0122,,0,0.5,953.3913,0,0,0,0,1,stimuli/bead_b.PNG,stimuli/blank.jpg,stimuli/blank.jpg,stimuli/blank.jpg,stimuli/blank.jpg,1,2,up,"[13,13,15,14,14]",,,,,,,,,,
,,,,A,2024-05-08_11h18.39.553,Fish Game,2023.1.3,MacIntel,60.97560976,,,,,,,,,,,,,,,2,,,,,,,,,,,,,,953.8918,1,up,0.675,,1,1.5,956.0774,0,1,1,1,1,stimuli/bead_y.PNG,stimuli/bead_b.PNG,stimuli/blank.jpg,stimuli/blank.jpg,stimuli/blank.jpg,1,2,up,,,,,,,,,,,
,,,,A,2024-05-08_11h18.39.553,Fish Game,2023.1.3,MacIntel,60.97560976,,,,,,,,,,,,,,,3,,,,,,,,,,,,,,956.5776,2,up,0.6367,,1,0.5,957.7454,0,2,2,2,1,stimuli/bead_y.PNG,stimuli/bead_y.PNG,stimuli/bead_b.PNG,stimuli/blank.jpg,stimuli/blank.jpg,1,2,up,,,,,,,,,,,
,,,,A,2024-05-08_11h18.39.553,Fish Game,2023.1.3,MacIntel,60.97560976,,,,,,,,,,,,,,,4,,,,,,,,,,,,,,958.2456,3,up,0.5516,,1,0.5,959.3117,0,3,3,3,1,stimuli/bead_y.PNG,stimuli/bead_y.PNG,stimuli/bead_y.PNG,stimuli/bead_b.PNG,stimuli/blank.jpg,1,2,up,,,,,,,,,,,
,,,,A,2024-05-08_11h18.39.553,Fish Game,2023.1.3,MacIntel,60.97560976,,,,,,,,,,,,,,,5,,,,,,,,,,,,,,959.8121,4,up,0.6214,,0,1.5,961.9468,0,4,4,4,1,stimuli/bead_g.PNG,stimuli/bead_y.PNG,stimuli/bead_y.PNG,stimuli/bead_y.PNG,stimuli/bead_b.PNG,2,3,right,,,,,,,,,,,
,,,,A,2024-05-08_11h18.39.553,Fish Game,2023.1.3,MacIntel,60.97560976,,,,,,,,,,,,,,,6,,,,,,,,,,,,,,962.446,5,right,0.75,,1,1.5,964.715,0,5,5,5,1,stimuli/bead_g.PNG,stimuli/bead_g.PNG,stimuli/bead_y.PNG,stimuli/bead_y.PNG,stimuli/bead_y.PNG,2,3,right,,,,,,,,,,,
,,,,A,2024-05-08_11h18.39.553,Fish Game,2023.1.3,MacIntel,60.97560976,,,,,,,,,,,,,,,7,,,,,,,,,,,,,,965.2162,6,right,0.6645,,1,0.5,966.3997,0,6,6,6,1,stimuli/bead_y.PNG,stimuli/bead_g.PNG,stimuli/bead_g.PNG,stimuli/bead_y.PNG,stimuli/bead_y.PNG,2,3,right,,,,,,,,,,,
,,,,A,2024-05-08_11h18.39.553,Fish Game,2023.1.3,MacIntel,60.97560976,,,,,,,,,,,,,,,8,,,,,,,,,,,,,,966.9001,7,right,0.9784,,1,0.5,968.3838,0,7,7,7,1,stimuli/bead_g.PNG,stimuli/bead_y.PNG,stimuli/bead_g.PNG,stimuli/bead_g.PNG,stimuli/bead_y.PNG,2,3,right,,,,,,,,,,,
,,,,A,2024-05-08_11h18.39.553,Fish Game,2023.1.3,MacIntel,60.97560976,,,,,,,,,,,,,,,9,,,,,,,,,,,,,,968.8842,8,right,0.6093,,1,1,970.501,0,8,8,8,1,stimuli/bead_g.PNG,stimuli/bead_g.PNG,stimuli/bead_y.PNG,stimuli/bead_g.PNG,stimuli/bead_g.PNG,2,3,right,,,,,,,,,,,
,,,,A,2024-05-08_11h18.39.553,Fish Game,2023.1.3,MacIntel,60.97560976,,,,,,,,,,,,,,,10,,,,,,,,,,,,,,971.0016,9,right,0.5004,,1,0.5,972.0199,0,9,9,9,1,stimuli/bead_g.PNG,stimuli/bead_g.PNG,stimuli/bead_g.PNG,stimuli/bead_y.PNG,stimuli/bead_g.PNG,2,3,right,,,,,,,,,,,
,,,,A,2024-05-08_11h18.39.553,Fish Game,2023.1.3,MacIntel,60.97560976,,,,,,,,,,,,,,,11,,,,,,,,,,,,,,972.5206,10,right,2.3487,,0,1,975.9054,0,10,10,10,1,stimuli/bead_y.PNG,stimuli/bead_g.PNG,stimuli/bead_g.PNG,stimuli/bead_g.PNG,stimuli/bead_y.PNG,1,2,up,,,,,,,,,,,
,,,,A,2024-05-08_11h18.39.553,Fish Game,2023.1.3,MacIntel,60.97560976,,,,,,,,,,,,,,,12,,,,,,,,,,,,,,976.4058,11,right,1.0808,,0,0.5,978.0053,0,11,11,11,1,stimuli/bead_b.PNG,stimuli/bead_y.PNG,stimuli/bead_g.PNG,stimuli/bead_g.PNG,stimuli/bead_g.PNG,1,2,up,,,,,,,,,,,
,,,,A,2024-05-08_11h18.39.553,Fish Game,2023.1.3,MacIntel,60.97560976,,,,,,,,,,,,,,,13,,,,,,,,,,,,,,978.5075,12,up,0.7578,,1,1,980.2905,0,12,12,12,1,stimuli/bead_y.PNG,stimuli/bead_b.PNG,stimuli/bead_y.PNG,stimuli/bead_g.PNG,stimuli/bead_g.PNG,1,2,up,,,,,,,,,,,
,,,,A,2024-05-08_11h18.39.553,Fish Game,2023.1.3,MacIntel,60.97560976,,,,,,,,,,,,,,,14,,,,,,,,,,,,,,980.7911,13,up,0.532,,1,1.5,982.8457,0,13,13,13,1,stimuli/bead_y.PNG,stimuli/bead_y.PNG,stimuli/bead_b.PNG,stimuli/bead_y.PNG,stimuli/bead_g.PNG,1,2,up,,,,,,,,,,,
,,,,A,2024-05-08_11h18.39.553,Fish Game,2023.1.3,MacIntel,60.97560976,,,,,,,,,,,,,,,15,,,,,,,,,,,,,,983.3562,14,up,0.5613,,1,1.5,985.4264,0,14,14,14,1,stimuli/bead_y.PNG,stimuli/bead_y.PNG,stimuli/bead_y.PNG,stimuli/bead_b.PNG,stimuli/bead_y.PNG,1,2,up,,,,,,,,,,,
,,,,A,2024-05-08_11h18.39.553,Fish Game,2023.1.3,MacIntel,60.97560976,,,,,,,,,,,,,,,1,,,,,,,,,,,,7,1condition/mainTrials7.xlsx,990.9241,0,up,0.6767,,1,0.5,992.1134,0,0,0,0,1,stimuli/bead_y.PNG,stimuli/blank.jpg,stimuli/blank.jpg,stimuli/blank.jpg,stimuli/blank.jpg,1,2,up,"[13,13,15,14,14,11]",,,,,,,,,,
,,,,A,2024-05-08_11h18.39.553,Fish Game,2023.1.3,MacIntel,60.97560976,,,,,,,,,,,,,,,2,,,,,,,,,,,,,,992.5807,1,up,0.5596,,1,1,994.1473,0,1,1,1,1,stimuli/bead_y.PNG,stimuli/bead_y.PNG,stimuli/blank.jpg,stimuli/blank.jpg,stimuli/blank.jpg,1,2,up,,,,,,,,,,,
,,,,A,2024-05-08_11h18.39.553,Fish Game,2023.1.3,MacIntel,60.97560976,,,,,,,,,,,,,,,3,,,,,,,,,,,,,,994.6484,2,up,0.5916,,1,0.5,995.7488,0,2,2,2,1,stimuli/bead_g.PNG,stimuli/bead_y.PNG,stimuli/bead_y.PNG,stimuli/blank.jpg,stimuli/blank.jpg,1,2,up,,,,,,,,,,,
,,,,A,2024-05-08_11h18.39.553,Fish Game,2023.1.3,MacIntel,60.97560976,,,,,,,,,,,,,,,4,,,,,,,,,,,,,,996.249,3,up,0.6073,,1,1.5,998.3667,0,3,3,3,1,stimuli/bead_y.PNG,stimuli/bead_g.PNG,stimuli/bead_y.PNG,stimuli/bead_y.PNG,stimuli/blank.jpg,1,2,up,,,,,,,,,,,
,,,,A,2024-05-08_11h18.39.553,Fish Game,2023.1.3,MacIntel,60.97560976,,,,,,,,,,,,,,,5,,,,,,,,,,,,,,998.8679,4,up,0.5062,,1,1,1000.4019,0,4,4,4,1,stimuli/bead_y.PNG,stimuli/bead_y.PNG,stimuli/bead_g.PNG,stimuli/bead_y.PNG,stimuli/bead_y.PNG,1,2,up,,,,,,,,,,,
,,,,A,2024-05-08_11h18.39.553,Fish Game,2023.1.3,MacIntel,60.97560976,,,,,,,,,,,,,,,6,,,,,,,,,,,,,,1000.9029,5,up,0.5824,,1,1.5,1002.9905,0,5,5,5,1,stimuli/bead_y.PNG,stimuli/bead_y.PNG,stimuli/bead_y.PNG,stimuli/bead_g.PNG,stimuli/bead_y.PNG,1,2,up,,,,,,,,,,,
,,,,A,2024-05-08_11h18.39.553,Fish Game,2023.1.3,MacIntel,60.97560976,,,,,,,,,,,,,,,7,,,,,,,,,,,,,,1003.4874,6,up,0.5409,,1,0.5,1004.5365,0,6,6,6,1,stimuli/bead_b.PNG,stimuli/bead_y.PNG,stimuli/bead_y.PNG,stimuli/bead_y.PNG,stimuli/bead_g.PNG,1,2,up,,,,,,,,,,,
,,,,A,2024-05-08_11h18.39.553,Fish Game,2023.1.3,MacIntel,60.97560976,,,,,,,,,,,,,,,8,,,,,,,,,,,,,,1005.0379,7,up,0.6621,,1,1.5,1007.2058,0,7,7,7,1,stimuli/bead_y.PNG,stimuli/bead_b.PNG,stimuli/bead_y.PNG,stimuli/bead_y.PNG,stimuli/bead_y.PNG,1,2,up,,,,,,,,,,,
,,,,A,2024-05-08_11h18.39.553,Fish Game,2023.1.3,MacIntel,60.97560976,,,,,,,,,,,,,,,9,,,,,,,,,,,,,,1007.7061,8,up,0.5095,,0,0.5,1008.7224,0,8,8,8,1,stimuli/bead_y.PNG,stimuli/bead_y.PNG,stimuli/bead_b.PNG,stimuli/bead_y.PNG,stimuli/bead_y.PNG,1,2,right,,,,,,,,,,,
,,,,A,2024-05-08_11h18.39.553,Fish Game,2023.1.3,MacIntel,60.97560976,,,,,,,,,,,,,,,10,,,,,,,,,,,,,,1009.223,9,up,0.5887,,0,1,1010.8243,0,9,9,9,1,stimuli/bead_g.PNG,stimuli/bead_y.PNG,stimuli/bead_y.PNG,stimuli/bead_b.PNG,stimuli/bead_y.PNG,2,3,right,,,,,,,,,,,
,,,,A,2024-05-08_11h18.39.553,Fish Game,2023.1.3,MacIntel,60.97560976,,,,,,,,,,,,,,,11,,,,,,,,,,,,,,1011.3247,10,up,0.5419,,0,1.5,1013.3753,0,10,10,10,1,stimuli/bead_g.PNG,stimuli/bead_g.PNG,stimuli/bead_y.PNG,stimuli/bead_y.PNG,stimuli/bead_b.PNG,2,3,right,,,,,,,,,,,
,,,,A,2024-05-08_11h18.39.553,Fish Game,2023.1.3,MacIntel,60.97560976,,,,,,,,,,,,,,,12,,,,,,,,,,,,,,1013.8753,11,right,0.5024,,1,0.5,1014.8929,0,11,11,11,1,stimuli/bead_y.PNG,stimuli/bead_g.PNG,stimuli/bead_g.PNG,stimuli/bead_y.PNG,stimuli/bead_y.PNG,2,3,right,,,,,,,,,,,
,,,,A,2024-05-08_11h18.39.553,Fish Game,2023.1.3,MacIntel,60.97560976,,,,,,,,,,,,,,,13,,,,,,,,,,,,,,1015.3944,12,right,0.5928,,1,0.5,1016.4943,0,12,12,12,1,stimuli/bead_g.PNG,stimuli/bead_y.PNG,stimuli/bead_g.PNG,stimuli/bead_g.PNG,stimuli/bead_y.PNG,2,3,right,,,,,,,,,,,
,,,,A,2024-05-08_11h18.39.553,Fish Game,2023.1.3,MacIntel,60.97560976,,,,,,,,,,,,,,,14,,,,,,,,,,,,,,1016.9945,13,right,0.65,,1,0.5,1018.1624,0,13,13,13,1,stimuli/bead_g.PNG,stimuli/bead_g.PNG,stimuli/bead_y.PNG,stimuli/bead_g.PNG,stimuli/bead_g.PNG,2,3,right,,,,,,,,,,,
,,,,A,2024-05-08_11h18.39.553,Fish Game,2023.1.3,MacIntel,60.97560976,,,,,,,,,,,,,,,15,,,,,,,,,,,,,,1018.6628,14,right,0.5415,,1,0.5,1019.7293,0,14,14,14,1,stimuli/bead_g.PNG,stimuli/bead_g.PNG,stimuli/bead_g.PNG,stimuli/bead_y.PNG,stimuli/bead_g.PNG,2,3,right,,,,,,,,,,,
,,,,A,2024-05-08_11h18.39.553,Fish Game,2023.1.3,MacIntel,60.97560976,,,,,,,,,,,,,,,1,,,,,,,,,,,,8,1condition/mainTrials8.xlsx,1025.2415,0,up,0.6036,,0,1.5,1027.3668,0,0,0,0,1,stimuli/bead_y.PNG,stimuli/blank.jpg,stimuli/blank.jpg,stimuli/blank.jpg,stimuli/blank.jpg,0,1,left,"[13,13,15,14,14,11,12]",,,,,,,,,,
,,,,A,2024-05-08_11h18.39.553,Fish Game,2023.1.3,MacIntel,60.97560976,,,,,,,,,,,,,,,2,,,,,,,,,,,,,,1027.8673,1,up,0.6088,,0,1,1029.4841,0,1,1,1,1,stimuli/bead_b.PNG,stimuli/bead_y.PNG,stimuli/blank.jpg,stimuli/blank.jpg,stimuli/blank.jpg,0,1,left,,,,,,,,,,,
,,,,A,2024-05-08_11h18.39.553,Fish Game,2023.1.3,MacIntel,60.97560976,,,,,,,,,,,,,,,3,,,,,,,,,,,,,,1029.9846,2,up,0.8766,,0,1,1031.8685,0,2,2,2,1,stimuli/bead_g.PNG,stimuli/bead_b.PNG,stimuli/bead_y.PNG,stimuli/blank.jpg,stimuli/blank.jpg,0,1,left,,,,,,,,,,,
,,,,A,2024-05-08_11h18.39.553,Fish Game,2023.1.3,MacIntel,60.97560976,,,,,,,,,,,,,,,4,,,,,,,,,,,,,,1032.3712,3,up,0.9497,,0,1.5,1034.8388,0,3,3,3,1,stimuli/bead_b.PNG,stimuli/bead_g.PNG,stimuli/bead_b.PNG,stimuli/bead_y.PNG,stimuli/blank.jpg,0,1,left,,,,,,,,,,,
,,,,A,2024-05-08_11h18.39.553,Fish Game,2023.1.3,MacIntel,60.97560976,,,,,,,,,,,,,,,5,,,,,,,,,,,,,,1035.3388,4,left,0.6134,,1,1,1036.9731,0,4,4,4,1,stimuli/bead_b.PNG,stimuli/bead_b.PNG,stimuli/bead_g.PNG,stimuli/bead_b.PNG,stimuli/bead_y.PNG,0,1,left,,,,,,,,,,,
,,,,A,2024-05-08_11h18.39.553,Fish Game,2023.1.3,MacIntel,60.97560976,,,,,,,,,,,,,,,6,,,,,,,,,,,,,,1037.4731,5,left,0.5097,,1,0.5,1038.4896,0,5,5,5,1,stimuli/bead_b.PNG,stimuli/bead_b.PNG,stimuli/bead_b.PNG,stimuli/bead_g.PNG,stimuli/bead_b.PNG,0,1,left,,,,,,,,,,,
,,,,A,2024-05-08_11h18.39.553,Fish Game,2023.1.3,MacIntel,60.97560976,,,,,,,,,,,,,,,7,,,,,,,,,,,,,,1038.991,6,left,0.6163,,1,0.5,1040.1404,0,6,6,6,1,stimuli/bead_g.PNG,stimuli/bead_b.PNG,stimuli/bead_b.PNG,stimuli/bead_b.PNG,stimuli/bead_g.PNG,0,1,left,,,,,,,,,,,
,,,,A,2024-05-08_11h18.39.553,Fish Game,2023.1.3,MacIntel,60.97560976,,,,,,,,,,,,,,,8,,,,,,,,,,,,,,1040.6409,7,left,0.5585,,1,1,1042.2086,0,7,7,7,1,stimuli/bead_b.PNG,stimuli/bead_g.PNG,stimuli/bead_b.PNG,stimuli/bead_b.PNG,stimuli/bead_b.PNG,0,1,left,,,,,,,,,,,
,,,,A,2024-05-08_11h18.39.553,Fish Game,2023.1.3,MacIntel,60.97560976,,,,,,,,,,,,,,,9,,,,,,,,,,,,,,1042.7091,8,left,0.8538,,1,0.5,1044.0767,0,8,8,8,1,stimuli/bead_y.PNG,stimuli/bead_b.PNG,stimuli/bead_g.PNG,stimuli/bead_b.PNG,stimuli/bead_b.PNG,0,1,left,,,,,,,,,,,
,,,,A,2024-05-08_11h18.39.553,Fish Game,2023.1.3,MacIntel,60.97560976,,,,,,,,,,,,,,,10,,,,,,,,,,,,,,1044.5776,9,left,0.6367,,1,1,1046.2436,0,9,9,9,1,stimuli/bead_b.PNG,stimuli/bead_y.PNG,stimuli/bead_b.PNG,stimuli/bead_g.PNG,stimuli/bead_b.PNG,0,1,left,,,,,,,,,,,
,,,,A,2024-05-08_11h18.39.553,Fish Game,2023.1.3,MacIntel,60.97560976,,,,,,,,,,,,,,,11,,,,,,,,,,,,,,1046.7456,10,left,0.8311,,1,0.5,1048.0949,0,10,10,10,1,stimuli/bead_b.PNG,stimuli/bead_b.PNG,stimuli/bead_y.PNG,stimuli/bead_b.PNG,stimuli/bead_g.PNG,0,1,left,,,,,,,,,,,
,,,,A,2024-05-08_11h18.39.553,Fish Game,2023.1.3,MacIntel,60.97560976,,,,,,,,,,,,,,,12,,,,,,,,,,,,,,1048.5969,11,left,1.1812,,0,0.5,1050.3134,0,11,11,11,1,stimuli/bead_y.PNG,stimuli/bead_b.PNG,stimuli/bead_b.PNG,stimuli/bead_y.PNG,stimuli/bead_b.PNG,1,2,up,,,,,,,,,,,
,,,,A,2024-05-08_11h18.39.553,Fish Game,2023.1.3,MacIntel,60.97560976,,,,,,,,,,,,,,,13,,,,,,,,,,,,,,1050.8144,12,left,0.6222,,0,1.5,1052.9646,0,12,12,12,1,stimuli/bead_y.PNG,stimuli/bead_y.PNG,stimuli/bead_b.PNG,stimuli/bead_b.PNG,stimuli/bead_y.PNG,1,2,up,,,,,,,,,,,
,,,,A,2024-05-08_11h18.39.553,Fish Game,2023.1.3,MacIntel,60.97560976,,,,,,,,,,,,,,,14,,,,,,,,,,,,,,1053.4648,13,left,0.5761,,0,0.5,1054.5487,0,13,13,13,1,stimuli/bead_y.PNG,stimuli/bead_y.PNG,stimuli/bead_y.PNG,stimuli/bead_b.PNG,stimuli/bead_b.PNG,1,2,up,,,,,,,,,,,
,,,,A,2024-05-08_11h18.39.553,Fish Game,2023.1.3,MacIntel,60.97560976,,,,,,,,,,,,,,,15,,,,,,,,,,,,,,1055.0512,14,left,0.6245,,0,0.5,1056.1996,0,14,14,14,1,stimuli/bead_g.PNG,stimuli/bead_y.PNG,stimuli/bead_y.PNG,stimuli/bead_y.PNG,stimuli/bead_b.PNG,1,2,up,,,,,,,,,,,
,,,,A,2024-05-08_11h18.39.553,Fish Game,2023.1.3,MacIntel,60.97560976,,,,,,,,,,,,,,,1,,,,,,,,,,,,9,1condition/mainTrials9.xlsx,1061.7124,0,right,0.5423,,1,1,1063.2704,0,0,0,0,1,stimuli/bead_g.PNG,stimuli/blank.jpg,stimuli/blank.jpg,stimuli/blank.jpg,stimuli/blank.jpg,2,3,right,"[13,13,15,14,14,11,12,7]",,,,,,,,,,
,,,,A,2024-05-08_11h18.39.553,Fish Game,2023.1.3,MacIntel,60.97560976,,,,,,,,,,,,,,,2,,,,,,,,,,,,,,1063.7701,1,right,1.6916,,1,0.5,1065.972,0,1,1,1,1,stimuli/bead_g.PNG,stimuli/bead_g.PNG,stimuli/blank.jpg,stimuli/blank.jpg,stimuli/blank.jpg,2,3,right,,,,,,,,,,,
,,,,A,2024-05-08_11h18.39.553,Fish Game,2023.1.3,MacIntel,60.97560976,,,,,,,,,,,,,,,3,,,,,,,,,,,,,,1066.4739,2,right,0.5606,,1,1.5,1068.5566,0,2,2,2,1,stimuli/bead_b.PNG,stimuli/bead_g.PNG,stimuli/bead_g.PNG,stimuli/blank.jpg,stimuli/blank.jpg,2,3,right,,,,,,,,,,,
,,,,A,2024-05-08_11h18.39.553,Fish Game,2023.1.3,MacIntel,60.97560976,,,,,,,,,,,,,,,4,,,,,,,,,,,,,,1069.057,3,right,0.7483,,1,0.5,1070.3238,0,3,3,3,1,stimuli/bead_g.PNG,stimuli/bead_b.PNG,stimuli/bead_g.PNG,stimuli/bead_g.PNG,stimuli/blank.jpg,2,3,right,,,,,,,,,,,
,,,,A,2024-05-08_11h18.39.553,Fish Game,2023.1.3,MacIntel,60.97560976,,,,,,,,,,,,,,,5,,,,,,,,,,,,,,1070.8293,4,right,0.6421,,1,0.5,1071.9913,0,4,4,4,1,stimuli/bead_g.PNG,stimuli/bead_g.PNG,stimuli/bead_b.PNG,stimuli/bead_g.PNG,stimuli/bead_g.PNG,2,3,right,,,,,,,,,,,
,,,,A,2024-05-08_11h18.39.553,Fish Game,2023.1.3,MacIntel,60.97560976,,,,,,,,,,,,,,,6,,,,,,,,,,,,,,1072.4922,5,right,0.9065,,1,0.5,1073.9088,0,5,5,5,1,stimuli/bead_b.PNG,stimuli/bead_g.PNG,stimuli/bead_g.PNG,stimuli/bead_b.PNG,stimuli/bead_g.PNG,2,3,right,,,,,,,,,,,
,,,,A,2024-05-08_11h18.39.553,Fish Game,2023.1.3,MacIntel,60.97560976,,,,,,,,,,,,,,,7,,,,,,,,,,,,,,1074.41,6,right,0.5813,0.0793,1,1.5,1076.5772,0,6,6,6,1,stimuli/bead_g.PNG,stimuli/bead_b.PNG,stimuli/bead_g.PNG,stimuli/bead_g.PNG,stimuli/bead_b.PNG,2,3,right,,,,,,,,,,,
,,,,A,2024-05-08_11h18.39.553,Fish Game,2023.1.3,MacIntel,60.97560976,,,,,,,,,,,,,,,8,,,,,,,,,,,,,,1077.0794,7,right,0.5305,,1,1.5,1079.1463,0,7,7,7,1,stimuli/bead_g.PNG,stimuli/bead_g.PNG,stimuli/bead_b.PNG,stimuli/bead_g.PNG,stimuli/bead_g.PNG,2,3,right,,,,,,,,,,,
,,,,A,2024-05-08_11h18.39.553,Fish Game,2023.1.3,MacIntel,60.97560976,,,,,,,,,,,,,,,9,,,,,,,,,,,,,,1079.6461,8,right,0.5286,,0,1,1081.1961,0,8,8,8,1,stimuli/bead_b.PNG,stimuli/bead_g.PNG,stimuli/bead_g.PNG,stimuli/bead_b.PNG,stimuli/bead_g.PNG,0,1,left,,,,,,,,,,,
,,,,A,2024-05-08_11h18.39.553,Fish Game,2023.1.3,MacIntel,60.97560976,,,,,,,,,,,,,,,10,,,,,,,,,,,,,,1081.6975,9,up,0.6385,,0,1,1083.3484,0,9,9,9,1,stimuli/bead_y.PNG,stimuli/bead_b.PNG,stimuli/bead_g.PNG,stimuli/bead_g.PNG,stimuli/bead_b.PNG,0,1,left,,,,,,,,,,,
,,,,A,2024-05-08_11h18.39.553,Fish Game,2023.1.3,MacIntel,60.97560976,,,,,,,,,,,,,,,11,,,,,,,,,,,,,,1083.8482,10,up,0.7006,,0,1,1085.566,0,10,10,10,1,stimuli/bead_b.PNG,stimuli/bead_y.PNG,stimuli/bead_b.PNG,stimuli/bead_g.PNG,stimuli/bead_g.PNG,0,1,left,,,,,,,,,,,
,,,,A,2024-05-08_11h18.39.553,Fish Game,2023.1.3,MacIntel,60.97560976,,,,,,,,,,,,,,,12,,,,,,,,,,,,,,1086.0687,11,left,0.5508,,1,1.5,1088.1519,0,11,11,11,1,stimuli/bead_b.PNG,stimuli/bead_b.PNG,stimuli/bead_y.PNG,stimuli/bead_b.PNG,stimuli/bead_g.PNG,0,1,left,,,,,,,,,,,
,,,,A,2024-05-08_11h18.39.553,Fish Game,2023.1.3,MacIntel,60.97560976,,,,,,,,,,,,,,,13,,,,,,,,,,,,,,1088.6516,12,left,0.5265,,1,1.5,1090.6865,0,12,12,12,1,stimuli/bead_b.PNG,stimuli/bead_b.PNG,stimuli/bead_b.PNG,stimuli/bead_y.PNG,stimuli/bead_b.PNG,0,1,left,,,,,,,,,,,
,,,,A,2024-05-08_11h18.39.553,Fish Game,2023.1.3,MacIntel,60.97560976,,,,,,,,,,,,,,,14,,,,,,,,,,,,,,1091.1981,13,left,2.5354,,1,1.5,1095.2561,0,13,13,13,1,stimuli/bead_g.PNG,stimuli/bead_b.PNG,stimuli/bead_b.PNG,stimuli/bead_b.PNG,stimuli/bead_y.PNG,0,1,left,,,,,,,,,,,
,,,,A,2024-05-08_11h18.39.553,Fish Game,2023.1.3,MacIntel,60.97560976,,,,,,,,,,,,,,,15,,,,,,,,,,,,,,1095.757,14,left,0.5861,,1,1,1097.3576,0,14,14,14,1,stimuli/bead_b.PNG,stimuli/bead_g.PNG,stimuli/bead_b.PNG,stimuli/bead_b.PNG,stimuli/bead_b.PNG,0,1,left,,,,,,,,,,,
,,,,A,2024-05-08_11h18.39.553,Fish Game,2023.1.3,MacIntel,60.97560976,,,,,,,,,,,,,,,1,,,,,,,,,,,,10,1condition/mainTrials10.xlsx,1102.8632,0,left,0.6287,,1,1,1104.5182,0,0,0,0,1,stimuli/bead_y.PNG,stimuli/blank.jpg,stimuli/blank.jpg,stimuli/blank.jpg,stimuli/blank.jpg,0,1,left,"[13,13,15,14,14,11,12,7,12]",,,,,,,,,,
,,,,A,2024-05-08_11h18.39.553,Fish Game,2023.1.3,MacIntel,60.97560976,,,,,,,,,,,,,,,2,,,,,,,,,,,,,,1105.0108,1,up,0.6032,,0,0.5,1106.1445,0,1,1,1,1,stimuli/bead_b.PNG,stimuli/bead_y.PNG,stimuli/blank.jpg,stimuli/blank.jpg,stimuli/blank.jpg,0,1,left,,,,,,,,,,,
,,,,A,2024-05-08_11h18.39.553,Fish Game,2023.1.3,MacIntel,60.97560976,,,,,,,,,,,,,,,3,,,,,,,,,,,,,,1106.6458,2,up,0.5281,,0,1.5,1108.6802,0,2,2,2,1,stimuli/bead_b.PNG,stimuli/bead_b.PNG,stimuli/bead_y.PNG,stimuli/blank.jpg,stimuli/blank.jpg,0,1,left,,,,,,,,,,,
,,,,A,2024-05-08_11h18.39.553,Fish Game,2023.1.3,MacIntel,60.97560976,,,,,,,,,,,,,,,4,,,,,,,,,,,,,,1109.193,3,up,0.5429,,0,0.5,1110.2468,0,3,3,3,1,stimuli/bead_b.PNG,stimuli/bead_b.PNG,stimuli/bead_b.PNG,stimuli/bead_y.PNG,stimuli/blank.jpg,0,1,left,,,,,,,,,,,
,,,,A,2024-05-08_11h18.39.553,Fish Game,2023.1.3,MacIntel,60.97560976,,,,,,,,,,,,,,,5,,,,,,,,,,,,,,1110.7529,4,up,0.5225,,0,0.5,1111.7984,0,4,4,4,1,stimuli/bead_b.PNG,stimuli/bead_b.PNG,stimuli/bead_b.PNG,stimuli/bead_b.PNG,stimuli/bead_y.PNG,0,1,left,,,,,,,,,,,
,,,,A,2024-05-08_11h18.39.553,Fish Game,2023.1.3,MacIntel,60.97560976,,,,,,,,,,,,,,,6,,,,,,,,,,,,,,1112.3051,5,left,1.0768,,1,1,1114.3982,0,5,5,5,1,stimuli/bead_g.PNG,stimuli/bead_b.PNG,stimuli/bead_b.PNG,stimuli/bead_b.PNG,stimuli/bead_b.PNG,0,1,left,,,,,,,,,,,
,,,,A,2024-05-08_11h18.39.553,Fish Game,2023.1.3,MacIntel,60.97560976,,,,,,,,,,,,,,,7,,,,,,,,,,,,,,1114.8987,6,left,1.8524,,1,1.5,1118.2689,0,6,6,6,1,stimuli/bead_b.PNG,stimuli/bead_g.PNG,stimuli/bead_b.PNG,stimuli/bead_b.PNG,stimuli/bead_b.PNG,0,1,left,,,,,,,,,,,
,,,,A,2024-05-08_11h18.39.553,Fish Game,2023.1.3,MacIntel,60.97560976,,,,,,,,,,,,,,,8,,,,,,,,,,,,,,1118.768,7,up,0.6901,,0,1,1120.5202,0,7,7,7,1,stimuli/bead_b.PNG,stimuli/bead_b.PNG,stimuli/bead_g.PNG,stimuli/bead_b.PNG,stimuli/bead_b.PNG,0,1,left,,,,,,,,,,,
,,,,A,2024-05-08_11h18.39.553,Fish Game,2023.1.3,MacIntel,60.97560976,,,,,,,,,,,,,,,9,,,,,,,,,,,,,,1121.0198,8,up,0.7354,,0,1.5,1123.2709,0,8,8,8,1,stimuli/bead_y.PNG,stimuli/bead_b.PNG,stimuli/bead_b.PNG,stimuli/bead_g.PNG,stimuli/bead_b.PNG,0,1,left,,,,,,,,,,,
,,,,A,2024-05-08_11h18.39.553,Fish Game,2023.1.3,MacIntel,60.97560976,,,,,,,,,,,,,,,10,,,,,,,,,,,,,,1123.7718,9,left,0.5679,,1,1.5,1125.8567,0,9,9,9,1,stimuli/bead_b.PNG,stimuli/bead_y.PNG,stimuli/bead_b.PNG,stimuli/bead_b.PNG,stimuli/bead_g.PNG,0,1,left,,,,,,,,,,,
,,,,A,2024-05-08_11h18.39.553,Fish Game,2023.1.3,MacIntel,60.97560976,,,,,,,,,,,,,,,11,,,,,,,,,,,,,,1126.3564,10,left,0.6503,,0,0.5,1127.523,0,10,10,10,1,stimuli/bead_g.PNG,stimuli/bead_b.PNG,stimuli/bead_y.PNG,stimuli/bead_b.PNG,stimuli/bead_b.PNG,2,3,right,,,,,,,,,,,
,,,,A,2024-05-08_11h18.39.553,Fish Game,2023.1.3,MacIntel,60.97560976,,,,,,,,,,,,,,,12,,,,,,,,,,,,,,1128.0233,11,left,1.9612,,0,1,1130.9916,0,11,11,11,1,stimuli/bead_b.PNG,stimuli/bead_g.PNG,stimuli/bead_b.PNG,stimuli/bead_y.PNG,stimuli/bead_b.PNG,2,3,right,,,,,,,,,,,
,,,,A,2024-05-08_11h18.39.553,Fish Game,2023.1.3,MacIntel,60.97560976,,,,,,,,,,,,,,,13,,,,,,,,,,,,,,1131.4924,12,left,1.4331,,0,1.5,1134.4446,0,12,12,12,1,stimuli/bead_g.PNG,stimuli/bead_b.PNG,stimuli/bead_g.PNG,stimuli/bead_b.PNG,stimuli/bead_y.PNG,2,3,right,,,,,,,,,,,
,,,,A,2024-05-08_11h18.39.553,Fish Game,2023.1.3,MacIntel,60.97560976,,,,,,,,,,,,,,,14,,,,,,,,,,,,,,1134.9444,13,left,2.1853,,0,0.5,1137.6359,0,13,13,13,1,stimuli/bead_g.PNG,stimuli/bead_g.PNG,stimuli/bead_b.PNG,stimuli/bead_g.PNG,stimuli/bead_b.PNG,2,3,right,,,,,,,,,,,
,,,,A,2024-05-08_11h18.39.553,Fish Game,2023.1.3,MacIntel,60.97560976,,,,,,,,,,,,,,,15,,,,,,,,,,,,,,1138.1303,14,left,0.5521,,0,1.5,1140.1972,0,14,14,14,1,stimuli/bead_g.PNG,stimuli/bead_g.PNG,stimuli/bead_g.PNG,stimuli/bead_b.PNG,stimuli/bead_g.PNG,2,3,right,,,,,,,,,,,
,,,,A,2024-05-08_11h18.39.553,Fish Game,2023.1.3,MacIntel,60.97560976,,,,,,,,,,0,14,14,14,1,15,stimuli/bead_b.PNG,stimuli/bead_y.PNG,stimuli/bead_y.PNG,stimuli/bead_g.PNG,stimuli/bead_y.PNG,1,2,up,,,,,,,,,,,,,,,,,,,,,,,,,,,"[13,13,15,14,14,11,12,7,12,4]",10,2024-05-08_11h37.48.881,0,1,1,1,1,1,1condition/practiceTrials2.xlsx,14
