participant,date,expName,psychopyVersion,OS,frameRate,ins1_key.keys,ins1_key.rt,ins1_key.duration,key_resp_2.keys,key_resp_2.rt,key_resp_2.duration,fish_key_2.corr,prac_trials.thisRepN,prac_trials.thisTrialN,prac_trials.thisN,prac_trials.thisIndex,prac_trials.ran,trial,fish1_p,fish2_p,fish3_p,fish4_p,fish5_p,pond_p,pond_p2,pond_p3,ExpStart_key.keys,ExpStart_key.rt,ExpStart_key.duration,fish_key_button.keys,fish_key_button.rt,fish_key_button.duration,fish_key.corr,fish_interval,key_time,trials.thisRepN,trials.thisTrialN,trials.thisN,trials.thisIndex,trials.ran,fish1,fish2,fish3,fish4,fish5,pond,pond2,pond3
,2023-09-28_10h01.58.567,Fish_Game,2023.1.3,MacIntel,60.06006006,,,,,,,,,,,,,,,,,,,,,,,,,,,,,,,,,,,,,,,,,,,
,2023-09-28_10h01.58.567,Fish_Game,2023.1.3,MacIntel,60.06006006,space,30.1371,,,,,,,,,,,,,,,,,,,,,,,,,,,,,,,,,,,,,,,,,
,2023-09-28_10h01.58.567,Fish_Game,2023.1.3,MacIntel,60.06006006,,,,,,,,,,,,,,,,,,,,,,,,,,,,,,,,,,,,,,,,,,,
,2023-09-28_10h01.58.567,Fish_Game,2023.1.3,MacIntel,60.06006006,,,,,,,,,,,,,,,,,,,,,,,,,,,,,,,,,,,,,,,,,,,
,2023-09-28_10h01.58.567,Fish_Game,2023.1.3,MacIntel,60.06006006,,,,up,0.8921,,1,0,0,0,0,1,1,stimuli/bead_y.PNG,stimuli/blank.jpg,stimuli/blank.jpg,stimuli/blank.jpg,stimuli/blank.jpg,1,2,up,,,,,,,,,,,,,,,,,,,,,,
,2023-09-28_10h01.58.567,Fish_Game,2023.1.3,MacIntel,60.06006006,,,,up,0.4189,,1,0,1,1,1,1,2,stimuli/bead_y.PNG,stimuli/bead_y.PNG,stimuli/blank.jpg,stimuli/blank.jpg,stimuli/blank.jpg,1,2,up,,,,,,,,,,,,,,,,,,,,,,
,2023-09-28_10h01.58.567,Fish_Game,2023.1.3,MacIntel,60.06006006,,,,up,0.4422,,1,0,2,2,2,1,3,stimuli/bead_y.PNG,stimuli/bead_y.PNG,stimuli/bead_y.PNG,stimuli/blank.jpg,stimuli/blank.jpg,1,2,up,,,,,,,,,,,,,,,,,,,,,,
,2023-09-28_10h01.58.567,Fish_Game,2023.1.3,MacIntel,60.06006006,,,,right,0.7048,,0,0,3,3,3,1,4,stimuli/bead_g.PNG,stimuli/bead_y.PNG,stimuli/bead_y.PNG,stimuli/bead_y.PNG,stimuli/blank.jpg,1,2,up,,,,,,,,,,,,,,,,,,,,,,
,2023-09-28_10h01.58.567,Fish_Game,2023.1.3,MacIntel,60.06006006,,,,up,0.0202,,1,0,4,4,4,1,5,stimuli/bead_y.PNG,stimuli/bead_g.PNG,stimuli/bead_y.PNG,stimuli/bead_y.PNG,stimuli/bead_y.PNG,1,2,up,,,,,,,,,,,,,,,,,,,,,,
,2023-09-28_10h01.58.567,Fish_Game,2023.1.3,MacIntel,60.06006006,,,,up,0.3727,,1,0,5,5,5,1,6,stimuli/bead_y.PNG,stimuli/bead_y.PNG,stimuli/bead_g.PNG,stimuli/bead_y.PNG,stimuli/bead_y.PNG,1,2,up,,,,,,,,,,,,,,,,,,,,,,
,2023-09-28_10h01.58.567,Fish_Game,2023.1.3,MacIntel,60.06006006,,,,up,0.2991,,1,0,6,6,6,1,7,stimuli/bead_y.PNG,stimuli/bead_y.PNG,stimuli/bead_y.PNG,stimuli/bead_g.PNG,stimuli/bead_y.PNG,1,2,up,,,,,,,,,,,,,,,,,,,,,,
,2023-09-28_10h01.58.567,Fish_Game,2023.1.3,MacIntel,60.06006006,,,,up,0.238,,1,0,7,7,7,1,8,stimuli/bead_b.PNG,stimuli/bead_y.PNG,stimuli/bead_y.PNG,stimuli/bead_y.PNG,stimuli/bead_g.PNG,1,2,up,,,,,,,,,,,,,,,,,,,,,,
,2023-09-28_10h01.58.567,Fish_Game,2023.1.3,MacIntel,60.06006006,,,,up,0.4256,,1,0,8,8,8,1,9,stimuli/bead_y.PNG,stimuli/bead_b.PNG,stimuli/bead_y.PNG,stimuli/bead_y.PNG,stimuli/bead_y.PNG,1,2,up,,,,,,,,,,,,,,,,,,,,,,
,2023-09-28_10h01.58.567,Fish_Game,2023.1.3,MacIntel,60.06006006,,,,up,0.4037,,1,0,9,9,9,1,10,stimuli/bead_y.PNG,stimuli/bead_y.PNG,stimuli/bead_b.PNG,stimuli/bead_y.PNG,stimuli/bead_y.PNG,1,2,up,,,,,,,,,,,,,,,,,,,,,,
,2023-09-28_10h01.58.567,Fish_Game,2023.1.3,MacIntel,60.06006006,,,,up,0.4025,,0,0,10,10,10,1,11,stimuli/bead_g.PNG,stimuli/bead_y.PNG,stimuli/bead_y.PNG,stimuli/bead_b.PNG,stimuli/bead_y.PNG,2,3,right,,,,,,,,,,,,,,,,,,,,,,
,2023-09-28_10h01.58.567,Fish_Game,2023.1.3,MacIntel,60.06006006,,,,right,0.3112,,1,0,11,11,11,1,12,stimuli/bead_g.PNG,stimuli/bead_g.PNG,stimuli/bead_y.PNG,stimuli/bead_y.PNG,stimuli/bead_b.PNG,2,3,right,,,,,,,,,,,,,,,,,,,,,,
,2023-09-28_10h01.58.567,Fish_Game,2023.1.3,MacIntel,60.06006006,,,,right,0.366,,1,0,12,12,12,1,13,stimuli/bead_b.PNG,stimuli/bead_g.PNG,stimuli/bead_g.PNG,stimuli/bead_y.PNG,stimuli/bead_y.PNG,2,3,right,,,,,,,,,,,,,,,,,,,,,,
,2023-09-28_10h01.58.567,Fish_Game,2023.1.3,MacIntel,60.06006006,,,,right,0.2708,,1,0,13,13,13,1,14,stimuli/bead_g.PNG,stimuli/bead_b.PNG,stimuli/bead_g.PNG,stimuli/bead_g.PNG,stimuli/bead_y.PNG,2,3,right,,,,,,,,,,,,,,,,,,,,,,
,2023-09-28_10h01.58.567,Fish_Game,2023.1.3,MacIntel,60.06006006,,,,right,0.382,,1,0,14,14,14,1,15,stimuli/bead_y.PNG,stimuli/bead_g.PNG,stimuli/bead_b.PNG,stimuli/bead_g.PNG,stimuli/bead_g.PNG,2,3,right,,,,,,,,,,,,,,,,,,,,,,
,2023-09-28_10h01.58.567,Fish_Game,2023.1.3,MacIntel,60.06006006,,,,right,0.3641,,1,0,15,15,15,1,16,stimuli/bead_g.PNG,stimuli/bead_y.PNG,stimuli/bead_g.PNG,stimuli/bead_b.PNG,stimuli/bead_g.PNG,2,3,right,,,,,,,,,,,,,,,,,,,,,,
,2023-09-28_10h01.58.567,Fish_Game,2023.1.3,MacIntel,60.06006006,,,,right,0.3704,,1,0,16,16,16,1,17,stimuli/bead_g.PNG,stimuli/bead_g.PNG,stimuli/bead_y.PNG,stimuli/bead_g.PNG,stimuli/bead_b.PNG,2,3,right,,,,,,,,,,,,,,,,,,,,,,
,2023-09-28_10h01.58.567,Fish_Game,2023.1.3,MacIntel,60.06006006,,,,right,0.409,,1,0,17,17,17,1,18,stimuli/bead_g.PNG,stimuli/bead_g.PNG,stimuli/bead_g.PNG,stimuli/bead_y.PNG,stimuli/bead_g.PNG,2,3,right,,,,,,,,,,,,,,,,,,,,,,
,2023-09-28_10h01.58.567,Fish_Game,2023.1.3,MacIntel,60.06006006,,,,right,0.4017,,1,0,18,18,18,1,19,stimuli/bead_g.PNG,stimuli/bead_g.PNG,stimuli/bead_g.PNG,stimuli/bead_g.PNG,stimuli/bead_y.PNG,2,3,right,,,,,,,,,,,,,,,,,,,,,,
,2023-09-28_10h01.58.567,Fish_Game,2023.1.3,MacIntel,60.06006006,,,,right,0.3496,,1,0,19,19,19,1,20,stimuli/bead_b.PNG,stimuli/bead_g.PNG,stimuli/bead_g.PNG,stimuli/bead_g.PNG,stimuli/bead_g.PNG,2,3,right,,,,,,,,,,,,,,,,,,,,,,
,2023-09-28_10h01.58.567,Fish_Game,2023.1.3,MacIntel,60.06006006,,,,,,,,,,,,,,,,,,,,,,space,3.0183,,,,,,,,,,,,,,,,,,,,
,2023-09-28_10h01.58.567,Fish_Game,2023.1.3,MacIntel,60.06006006,,,,,,,,,,,,,1,,,,,,,,,,,,right,0.5964,,0,1.5,9/28/23,0,0,0,0,1,stimuli/bead_g.PNG,stimuli/blank.jpg,stimuli/blank.jpg,stimuli/blank.jpg,stimuli/blank.jpg,1,2,up
,2023-09-28_10h01.58.567,Fish_Game,2023.1.3,MacIntel,60.06006006,,,,,,,,,,,,,2,,,,,,,,,,,,right,0.455,,0,1,9/28/23,0,1,1,1,1,stimuli/bead_y.PNG,stimuli/bead_g.PNG,stimuli/blank.jpg,stimuli/blank.jpg,stimuli/blank.jpg,1,2,up
,2023-09-28_10h01.58.567,Fish_Game,2023.1.3,MacIntel,60.06006006,,,,,,,,,,,,,3,,,,,,,,,,,,right,0.3384,,0,1.5,9/28/23,0,2,2,2,1,stimuli/bead_y.PNG,stimuli/bead_y.PNG,stimuli/bead_g.PNG,stimuli/blank.jpg,stimuli/blank.jpg,1,2,up
,2023-09-28_10h01.58.567,Fish_Game,2023.1.3,MacIntel,60.06006006,,,,,,,,,,,,,4,,,,,,,,,,,,up,0.5102,,1,1,9/28/23,0,3,3,3,1,stimuli/bead_y.PNG,stimuli/bead_y.PNG,stimuli/bead_y.PNG,stimuli/bead_g.PNG,stimuli/blank.jpg,1,2,up
,2023-09-28_10h01.58.567,Fish_Game,2023.1.3,MacIntel,60.06006006,,,,,,,,,,,,,5,,,,,,,,,,,,up,0.0524,,1,1.5,9/28/23,0,4,4,4,1,stimuli/bead_b.PNG,stimuli/bead_y.PNG,stimuli/bead_y.PNG,stimuli/bead_y.PNG,stimuli/bead_g.PNG,1,2,up
,2023-09-28_10h01.58.567,Fish_Game,2023.1.3,MacIntel,60.06006006,,,,,,,,,,,,,6,,,,,,,,,,,,up,0.2709,,1,1.5,9/28/23,0,5,5,5,1,stimuli/bead_y.PNG,stimuli/bead_b.PNG,stimuli/bead_y.PNG,stimuli/bead_y.PNG,stimuli/bead_y.PNG,1,2,up
,2023-09-28_10h01.58.567,Fish_Game,2023.1.3,MacIntel,60.06006006,,,,,,,,,,,,,7,,,,,,,,,,,,up,0.2852,,1,1.5,9/28/23,0,6,6,6,1,stimuli/bead_y.PNG,stimuli/bead_y.PNG,stimuli/bead_b.PNG,stimuli/bead_y.PNG,stimuli/bead_y.PNG,1,2,up
,2023-09-28_10h01.58.567,Fish_Game,2023.1.3,MacIntel,60.06006006,,,,,,,,,,,,,8,,,,,,,,,,,,up,0.271,,1,1,9/28/23,0,7,7,7,1,stimuli/bead_y.PNG,stimuli/bead_y.PNG,stimuli/bead_y.PNG,stimuli/bead_b.PNG,stimuli/bead_y.PNG,1,2,up
,2023-09-28_10h01.58.567,Fish_Game,2023.1.3,MacIntel,60.06006006,,,,,,,,,,,,,9,,,,,,,,,,,,up,0.3538,,1,0.5,9/28/23,0,8,8,8,1,stimuli/bead_y.PNG,stimuli/bead_y.PNG,stimuli/bead_y.PNG,stimuli/bead_y.PNG,stimuli/bead_b.PNG,1,2,up
,2023-09-28_10h01.58.567,Fish_Game,2023.1.3,MacIntel,60.06006006,,,,,,,,,,,,,10,,,,,,,,,,,,up,0.3049,,1,1,9/28/23,0,9,9,9,1,stimuli/bead_b.PNG,stimuli/bead_y.PNG,stimuli/bead_y.PNG,stimuli/bead_y.PNG,stimuli/bead_y.PNG,1,2,up
,2023-09-28_10h01.58.567,Fish_Game,2023.1.3,MacIntel,60.06006006,,,,,,,,,,,,,11,,,,,,,,,,,,up,0.4535,,1,1.5,9/28/23,0,10,10,10,1,stimuli/bead_y.PNG,stimuli/bead_b.PNG,stimuli/bead_y.PNG,stimuli/bead_y.PNG,stimuli/bead_y.PNG,1,2,up
,2023-09-28_10h01.58.567,Fish_Game,2023.1.3,MacIntel,60.06006006,,,,,,,,,,,,,12,,,,,,,,,,,,up,0.3694,,1,0.5,9/28/23,0,11,11,11,1,stimuli/bead_y.PNG,stimuli/bead_y.PNG,stimuli/bead_b.PNG,stimuli/bead_y.PNG,stimuli/bead_y.PNG,1,2,up
,2023-09-28_10h01.58.567,Fish_Game,2023.1.3,MacIntel,60.06006006,,,,,,,,,,,,,13,,,,,,,,,,,,right,0.8327,,1,0.5,9/28/23,0,12,12,12,1,stimuli/bead_g.PNG,stimuli/bead_y.PNG,stimuli/bead_y.PNG,stimuli/bead_b.PNG,stimuli/bead_y.PNG,2,3,right
,2023-09-28_10h01.58.567,Fish_Game,2023.1.3,MacIntel,60.06006006,,,,,,,,,,,,,14,,,,,,,,,,,,right,0.2317,,1,1,9/28/23,0,13,13,13,1,stimuli/bead_g.PNG,stimuli/bead_g.PNG,stimuli/bead_y.PNG,stimuli/bead_y.PNG,stimuli/bead_b.PNG,2,3,right
,2023-09-28_10h01.58.567,Fish_Game,2023.1.3,MacIntel,60.06006006,,,,,,,,,,,,,15,,,,,,,,,,,,right,0.3585,,1,0.5,9/28/23,0,14,14,14,1,stimuli/bead_y.PNG,stimuli/bead_g.PNG,stimuli/bead_g.PNG,stimuli/bead_y.PNG,stimuli/bead_y.PNG,2,3,right
,2023-09-28_10h01.58.567,Fish_Game,2023.1.3,MacIntel,60.06006006,,,,,,,,,,,,,16,,,,,,,,,,,,right,0.3143,,1,1.5,9/28/23,0,15,15,15,1,stimuli/bead_g.PNG,stimuli/bead_y.PNG,stimuli/bead_g.PNG,stimuli/bead_g.PNG,stimuli/bead_y.PNG,2,3,right
,2023-09-28_10h01.58.567,Fish_Game,2023.1.3,MacIntel,60.06006006,,,,,,,,,,,,,17,,,,,,,,,,,,right,0.288,,1,1.5,9/28/23,0,16,16,16,1,stimuli/bead_g.PNG,stimuli/bead_g.PNG,stimuli/bead_y.PNG,stimuli/bead_g.PNG,stimuli/bead_g.PNG,2,3,right
,2023-09-28_10h01.58.567,Fish_Game,2023.1.3,MacIntel,60.06006006,,,,,,,,,,,,,18,,,,,,,,,,,,right,0.2763,,1,1.5,9/28/23,0,17,17,17,1,stimuli/bead_g.PNG,stimuli/bead_g.PNG,stimuli/bead_g.PNG,stimuli/bead_y.PNG,stimuli/bead_g.PNG,2,3,right
,2023-09-28_10h01.58.567,Fish_Game,2023.1.3,MacIntel,60.06006006,,,,,,,,,,,,,19,,,,,,,,,,,,right,0.2867,,1,1,9/28/23,0,18,18,18,1,stimuli/bead_b.PNG,stimuli/bead_g.PNG,stimuli/bead_g.PNG,stimuli/bead_g.PNG,stimuli/bead_y.PNG,2,3,right
,2023-09-28_10h01.58.567,Fish_Game,2023.1.3,MacIntel,60.06006006,,,,,,,,,,,,,20,,,,,,,,,,,,right,0.2868,,1,1,9/28/23,0,19,19,19,1,stimuli/bead_g.PNG,stimuli/bead_b.PNG,stimuli/bead_g.PNG,stimuli/bead_g.PNG,stimuli/bead_g.PNG,2,3,right
,2023-09-28_10h01.58.567,Fish_Game,2023.1.3,MacIntel,60.06006006,,,,,,,,,,,,,1,,,,,,,,,,,,up,0.1195,,0,1.5,9/28/23,0,0,0,0,1,stimuli/bead_b.PNG,stimuli/blank.jpg,stimuli/blank.jpg,stimuli/blank.jpg,stimuli/blank.jpg,0,1,left
,2023-09-28_10h01.58.567,Fish_Game,2023.1.3,MacIntel,60.06006006,,,,,,,,,,,,,2,,,,,,,,,,,,left,1.4078,,1,1.5,9/28/23,0,1,1,1,1,stimuli/bead_b.PNG,stimuli/bead_b.PNG,stimuli/blank.jpg,stimuli/blank.jpg,stimuli/blank.jpg,0,1,left
,2023-09-28_10h01.58.567,Fish_Game,2023.1.3,MacIntel,60.06006006,,,,,,,,,,,,,3,,,,,,,,,,,,left,0.3757,,1,1,9/28/23,0,2,2,2,1,stimuli/bead_b.PNG,stimuli/bead_b.PNG,stimuli/bead_b.PNG,stimuli/blank.jpg,stimuli/blank.jpg,0,1,left
,2023-09-28_10h01.58.567,Fish_Game,2023.1.3,MacIntel,60.06006006,,,,,,,,,,,,,4,,,,,,,,,,,,left,0.004,,1,1,9/28/23,0,3,3,3,1,stimuli/bead_b.PNG,stimuli/bead_b.PNG,stimuli/bead_b.PNG,stimuli/bead_b.PNG,stimuli/blank.jpg,0,1,left
,2023-09-28_10h01.58.567,Fish_Game,2023.1.3,MacIntel,60.06006006,,,,,,,,,,,,,5,,,,,,,,,,,,left,0.3441,,1,0.5,9/28/23,0,4,4,4,1,stimuli/bead_g.PNG,stimuli/bead_b.PNG,stimuli/bead_b.PNG,stimuli/bead_b.PNG,stimuli/bead_b.PNG,0,1,left
,2023-09-28_10h01.58.567,Fish_Game,2023.1.3,MacIntel,60.06006006,,,,,,,,,,,,,6,,,,,,,,,,,,left,0.3517,,1,1,9/28/23,0,5,5,5,1,stimuli/bead_b.PNG,stimuli/bead_g.PNG,stimuli/bead_b.PNG,stimuli/bead_b.PNG,stimuli/bead_b.PNG,0,1,left
,2023-09-28_10h01.58.567,Fish_Game,2023.1.3,MacIntel,60.06006006,,,,,,,,,,,,,7,,,,,,,,,,,,left,0.2694,,1,1.5,9/28/23,0,6,6,6,1,stimuli/bead_b.PNG,stimuli/bead_b.PNG,stimuli/bead_g.PNG,stimuli/bead_b.PNG,stimuli/bead_b.PNG,0,1,left
,2023-09-28_10h01.58.567,Fish_Game,2023.1.3,MacIntel,60.06006006,,,,,,,,,,,,,8,,,,,,,,,,,,left,0.259,,1,1.5,9/28/23,0,7,7,7,1,stimuli/bead_b.PNG,stimuli/bead_b.PNG,stimuli/bead_b.PNG,stimuli/bead_g.PNG,stimuli/bead_b.PNG,0,1,left
,2023-09-28_10h01.58.567,Fish_Game,2023.1.3,MacIntel,60.06006006,,,,,,,,,,,,,9,,,,,,,,,,,,left,0.2573,,1,1,9/28/23,0,8,8,8,1,stimuli/bead_y.PNG,stimuli/bead_b.PNG,stimuli/bead_b.PNG,stimuli/bead_b.PNG,stimuli/bead_g.PNG,0,1,left
,2023-09-28_10h01.58.567,Fish_Game,2023.1.3,MacIntel,60.06006006,,,,,,,,,,,,,10,,,,,,,,,,,,left,0.3877,,1,0.5,9/28/23,0,9,9,9,1,stimuli/bead_b.PNG,stimuli/bead_y.PNG,stimuli/bead_b.PNG,stimuli/bead_b.PNG,stimuli/bead_b.PNG,0,1,left
,2023-09-28_10h01.58.567,Fish_Game,2023.1.3,MacIntel,60.06006006,,,,,,,,,,,,,11,,,,,,,,,,,,left,0.3844,,0,0.5,9/28/23,0,10,10,10,1,stimuli/bead_y.PNG,stimuli/bead_b.PNG,stimuli/bead_y.PNG,stimuli/bead_b.PNG,stimuli/bead_b.PNG,1,2,up
,2023-09-28_10h01.58.567,Fish_Game,2023.1.3,MacIntel,60.06006006,,,,,,,,,,,,,12,,,,,,,,,,,,up,0.4685,,1,1.5,9/28/23,0,11,11,11,1,stimuli/bead_y.PNG,stimuli/bead_y.PNG,stimuli/bead_b.PNG,stimuli/bead_y.PNG,stimuli/bead_b.PNG,1,2,up
,2023-09-28_10h01.58.567,Fish_Game,2023.1.3,MacIntel,60.06006006,,,,,,,,,,,,,13,,,,,,,,,,,,up,0.5143,,1,0.5,9/28/23,0,12,12,12,1,stimuli/bead_b.PNG,stimuli/bead_y.PNG,stimuli/bead_y.PNG,stimuli/bead_b.PNG,stimuli/bead_y.PNG,1,2,up
,2023-09-28_10h01.58.567,Fish_Game,2023.1.3,MacIntel,60.06006006,,,,,,,,,,,,,14,,,,,,,,,,,,up,0.3707,,1,0.5,9/28/23,0,13,13,13,1,stimuli/bead_y.PNG,stimuli/bead_b.PNG,stimuli/bead_y.PNG,stimuli/bead_y.PNG,stimuli/bead_b.PNG,1,2,up
,2023-09-28_10h01.58.567,Fish_Game,2023.1.3,MacIntel,60.06006006,,,,,,,,,,,,,15,,,,,,,,,,,,up,0.3201,,1,1,9/28/23,0,14,14,14,1,stimuli/bead_y.PNG,stimuli/bead_y.PNG,stimuli/bead_b.PNG,stimuli/bead_y.PNG,stimuli/bead_y.PNG,1,2,up
,2023-09-28_10h01.58.567,Fish_Game,2023.1.3,MacIntel,60.06006006,,,,,,,,,,,,,16,,,,,,,,,,,,up,0.3193,,1,0.5,9/28/23,0,15,15,15,1,stimuli/bead_g.PNG,stimuli/bead_y.PNG,stimuli/bead_y.PNG,stimuli/bead_b.PNG,stimuli/bead_y.PNG,1,2,up
,2023-09-28_10h01.58.567,Fish_Game,2023.1.3,MacIntel,60.06006006,,,,,,,,,,,,,17,,,,,,,,,,,,up,0.2706,,1,0.5,9/28/23,0,16,16,16,1,stimuli/bead_y.PNG,stimuli/bead_g.PNG,stimuli/bead_y.PNG,stimuli/bead_y.PNG,stimuli/bead_b.PNG,1,2,up
,2023-09-28_10h01.58.567,Fish_Game,2023.1.3,MacIntel,60.06006006,,,,,,,,,,,,,18,,,,,,,,,,,,up,0.0396,,1,1.5,9/28/23,0,17,17,17,1,stimuli/bead_y.PNG,stimuli/bead_y.PNG,stimuli/bead_g.PNG,stimuli/bead_y.PNG,stimuli/bead_y.PNG,1,2,up
,2023-09-28_10h01.58.567,Fish_Game,2023.1.3,MacIntel,60.06006006,,,,,,,,,,,,,19,,,,,,,,,,,,up,0.1987,,1,0.5,9/28/23,0,18,18,18,1,stimuli/bead_y.PNG,stimuli/bead_y.PNG,stimuli/bead_y.PNG,stimuli/bead_g.PNG,stimuli/bead_y.PNG,1,2,up
,2023-09-28_10h01.58.567,Fish_Game,2023.1.3,MacIntel,60.06006006,,,,,,,,,,,,,20,,,,,,,,,,,,up,0.2828,,1,1.5,9/28/23,0,19,19,19,1,stimuli/bead_y.PNG,stimuli/bead_y.PNG,stimuli/bead_y.PNG,stimuli/bead_y.PNG,stimuli/bead_g.PNG,1,2,up
,2023-09-28_10h01.58.567,Fish_Game,2023.1.3,MacIntel,60.06006006,,,,,,,,,,,,,1,,,,,,,,,,,,right,0.6603,,1,1,9/28/23,0,0,0,0,1,stimuli/bead_g.PNG,stimuli/blank.jpg,stimuli/blank.jpg,stimuli/blank.jpg,stimuli/blank.jpg,2,3,right
,2023-09-28_10h01.58.567,Fish_Game,2023.1.3,MacIntel,60.06006006,,,,,,,,,,,,,2,,,,,,,,,,,,right,0.3597,,1,0.5,9/28/23,0,1,1,1,1,stimuli/bead_g.PNG,stimuli/bead_g.PNG,stimuli/blank.jpg,stimuli/blank.jpg,stimuli/blank.jpg,2,3,right
,2023-09-28_10h01.58.567,Fish_Game,2023.1.3,MacIntel,60.06006006,,,,,,,,,,,,,3,,,,,,,,,,,,right,0.3105,,1,0.5,9/28/23,0,2,2,2,1,stimuli/bead_g.PNG,stimuli/bead_g.PNG,stimuli/bead_g.PNG,stimuli/blank.jpg,stimuli/blank.jpg,2,3,right
,2023-09-28_10h01.58.567,Fish_Game,2023.1.3,MacIntel,60.06006006,,,,,,,,,,,,,4,,,,,,,,,,,,right,0.2884,,1,0.5,9/28/23,0,3,3,3,1,stimuli/bead_y.PNG,stimuli/bead_g.PNG,stimuli/bead_g.PNG,stimuli/bead_g.PNG,stimuli/blank.jpg,2,3,right
,2023-09-28_10h01.58.567,Fish_Game,2023.1.3,MacIntel,60.06006006,,,,,,,,,,,,,5,,,,,,,,,,,,right,0.3315,,1,1,9/28/23,0,4,4,4,1,stimuli/bead_g.PNG,stimuli/bead_y.PNG,stimuli/bead_g.PNG,stimuli/bead_g.PNG,stimuli/bead_g.PNG,2,3,right
,2023-09-28_10h01.58.567,Fish_Game,2023.1.3,MacIntel,60.06006006,,,,,,,,,,,,,6,,,,,,,,,,,,right,0.2747,,1,1.5,9/28/23,0,5,5,5,1,stimuli/bead_y.PNG,stimuli/bead_g.PNG,stimuli/bead_y.PNG,stimuli/bead_g.PNG,stimuli/bead_g.PNG,2,3,right
,2023-09-28_10h01.58.567,Fish_Game,2023.1.3,MacIntel,60.06006006,,,,,,,,,,,,,7,,,,,,,,,,,,up,0.3414,,0,0.5,9/28/23,0,6,6,6,1,stimuli/bead_g.PNG,stimuli/bead_y.PNG,stimuli/bead_g.PNG,stimuli/bead_y.PNG,stimuli/bead_g.PNG,2,3,right
,2023-09-28_10h01.58.567,Fish_Game,2023.1.3,MacIntel,60.06006006,,,,,,,,,,,,,8,,,,,,,,,,,,right,0.3307,,1,0.5,9/28/23,0,7,7,7,1,stimuli/bead_g.PNG,stimuli/bead_g.PNG,stimuli/bead_y.PNG,stimuli/bead_g.PNG,stimuli/bead_y.PNG,2,3,right
,2023-09-28_10h01.58.567,Fish_Game,2023.1.3,MacIntel,60.06006006,,,,,,,,,,,,,9,,,,,,,,,,,,right,0.0652,,1,0.5,9/28/23,0,8,8,8,1,stimuli/bead_g.PNG,stimuli/bead_g.PNG,stimuli/bead_g.PNG,stimuli/bead_y.PNG,stimuli/bead_g.PNG,2,3,right
,2023-09-28_10h01.58.567,Fish_Game,2023.1.3,MacIntel,60.06006006,,,,,,,,,,,,,10,,,,,,,,,,,,right,0.3171,,1,1.5,9/28/23,0,9,9,9,1,stimuli/bead_b.PNG,stimuli/bead_g.PNG,stimuli/bead_g.PNG,stimuli/bead_g.PNG,stimuli/bead_y.PNG,2,3,right
,2023-09-28_10h01.58.567,Fish_Game,2023.1.3,MacIntel,60.06006006,,,,,,,,,,,,,11,,,,,,,,,,,,right,0.5152,,1,1.5,9/28/23,0,10,10,10,1,stimuli/bead_g.PNG,stimuli/bead_b.PNG,stimuli/bead_g.PNG,stimuli/bead_g.PNG,stimuli/bead_g.PNG,2,3,right
,2023-09-28_10h01.58.567,Fish_Game,2023.1.3,MacIntel,60.06006006,,,,,,,,,,,,,12,,,,,,,,,,,,right,0.5836,,1,1.5,9/28/23,0,11,11,11,1,stimuli/bead_g.PNG,stimuli/bead_g.PNG,stimuli/bead_b.PNG,stimuli/bead_g.PNG,stimuli/bead_g.PNG,2,3,right
,2023-09-28_10h01.58.567,Fish_Game,2023.1.3,MacIntel,60.06006006,,,,,,,,,,,,,13,,,,,,,,,,,,right,0.3653,,1,1.5,9/28/23,0,12,12,12,1,stimuli/bead_g.PNG,stimuli/bead_g.PNG,stimuli/bead_g.PNG,stimuli/bead_b.PNG,stimuli/bead_g.PNG,2,3,right
,2023-09-28_10h01.58.567,Fish_Game,2023.1.3,MacIntel,60.06006006,,,,,,,,,,,,,14,,,,,,,,,,,,right,0.8018,,0,0.5,9/28/23,0,13,13,13,1,stimuli/bead_b.PNG,stimuli/bead_g.PNG,stimuli/bead_g.PNG,stimuli/bead_g.PNG,stimuli/bead_b.PNG,0,1,left
,2023-09-28_10h01.58.567,Fish_Game,2023.1.3,MacIntel,60.06006006,,,,,,,,,,,,,15,,,,,,,,,,,,left,0.3716,,1,1.5,9/28/23,0,14,14,14,1,stimuli/bead_b.PNG,stimuli/bead_b.PNG,stimuli/bead_g.PNG,stimuli/bead_g.PNG,stimuli/bead_g.PNG,0,1,left
,2023-09-28_10h01.58.567,Fish_Game,2023.1.3,MacIntel,60.06006006,,,,,,,,,,,,,16,,,,,,,,,,,,left,0.3209,,1,1.5,9/28/23,0,15,15,15,1,stimuli/bead_b.PNG,stimuli/bead_b.PNG,stimuli/bead_b.PNG,stimuli/bead_g.PNG,stimuli/bead_g.PNG,0,1,left
,2023-09-28_10h01.58.567,Fish_Game,2023.1.3,MacIntel,60.06006006,,,,,,,,,,,,,17,,,,,,,,,,,,left,0.4251,,1,0.5,9/28/23,0,16,16,16,1,stimuli/bead_g.PNG,stimuli/bead_b.PNG,stimuli/bead_b.PNG,stimuli/bead_b.PNG,stimuli/bead_g.PNG,0,1,left
,2023-09-28_10h01.58.567,Fish_Game,2023.1.3,MacIntel,60.06006006,,,,,,,,,,,,,18,,,,,,,,,,,,left,0.9056,,1,0.5,9/28/23,0,17,17,17,1,stimuli/bead_b.PNG,stimuli/bead_g.PNG,stimuli/bead_b.PNG,stimuli/bead_b.PNG,stimuli/bead_b.PNG,0,1,left
,2023-09-28_10h01.58.567,Fish_Game,2023.1.3,MacIntel,60.06006006,,,,,,,,,,,,,19,,,,,,,,,,,,left,0.3982,,1,1.5,9/28/23,0,18,18,18,1,stimuli/bead_g.PNG,stimuli/bead_b.PNG,stimuli/bead_g.PNG,stimuli/bead_b.PNG,stimuli/bead_b.PNG,0,1,left
,2023-09-28_10h01.58.567,Fish_Game,2023.1.3,MacIntel,60.06006006,,,,,,,,,,,,,20,,,,,,,,,,,,left,0.4319,,1,0.5,9/28/23,0,19,19,19,1,stimuli/bead_b.PNG,stimuli/bead_g.PNG,stimuli/bead_b.PNG,stimuli/bead_g.PNG,stimuli/bead_b.PNG,0,1,left
,2023-09-28_10h01.58.567,Fish_Game,2023.1.3,MacIntel,60.06006006,,,,,,,,,,,,,1,,,,,,,,,,,,left,0.1813,,0,0.5,9/28/23,0,0,0,0,1,stimuli/bead_y.PNG,stimuli/blank.jpg,stimuli/blank.jpg,stimuli/blank.jpg,stimuli/blank.jpg,2,3,right
,2023-09-28_10h01.58.567,Fish_Game,2023.1.3,MacIntel,60.06006006,,,,,,,,,,,,,2,,,,,,,,,,,,up,0.0119,,0,1.5,9/28/23,0,1,1,1,1,stimuli/bead_g.PNG,stimuli/bead_y.PNG,stimuli/blank.jpg,stimuli/blank.jpg,stimuli/blank.jpg,2,3,right
,2023-09-28_10h01.58.567,Fish_Game,2023.1.3,MacIntel,60.06006006,,,,,,,,,,,,,3,,,,,,,,,,,,right,0.4326,,1,1,9/28/23,0,2,2,2,1,stimuli/bead_g.PNG,stimuli/bead_g.PNG,stimuli/bead_y.PNG,stimuli/blank.jpg,stimuli/blank.jpg,2,3,right
,2023-09-28_10h01.58.567,Fish_Game,2023.1.3,MacIntel,60.06006006,,,,,,,,,,,,,4,,,,,,,,,,,,right,0.2346,,1,1,9/28/23,0,3,3,3,1,stimuli/bead_g.PNG,stimuli/bead_g.PNG,stimuli/bead_g.PNG,stimuli/bead_y.PNG,stimuli/blank.jpg,2,3,right
,2023-09-28_10h01.58.567,Fish_Game,2023.1.3,MacIntel,60.06006006,,,,,,,,,,,,,5,,,,,,,,,,,,right,0.5776,,1,0.5,9/28/23,0,4,4,4,1,stimuli/bead_b.PNG,stimuli/bead_g.PNG,stimuli/bead_g.PNG,stimuli/bead_g.PNG,stimuli/bead_y.PNG,2,3,right
,2023-09-28_10h01.58.567,Fish_Game,2023.1.3,MacIntel,60.06006006,,,,,,,,,,,,,6,,,,,,,,,,,,right,0.3211,,1,1.5,9/28/23,0,5,5,5,1,stimuli/bead_g.PNG,stimuli/bead_b.PNG,stimuli/bead_g.PNG,stimuli/bead_g.PNG,stimuli/bead_g.PNG,2,3,right
,2023-09-28_10h01.58.567,Fish_Game,2023.1.3,MacIntel,60.06006006,,,,,,,,,,,,,7,,,,,,,,,,,,right,0.3509,,1,1.5,9/28/23,0,6,6,6,1,stimuli/bead_g.PNG,stimuli/bead_g.PNG,stimuli/bead_b.PNG,stimuli/bead_g.PNG,stimuli/bead_g.PNG,2,3,right
,2023-09-28_10h01.58.567,Fish_Game,2023.1.3,MacIntel,60.06006006,,,,,,,,,,,,,8,,,,,,,,,,,,right,0.386,,0,1.5,9/28/23,0,7,7,7,1,stimuli/bead_y.PNG,stimuli/bead_g.PNG,stimuli/bead_g.PNG,stimuli/bead_b.PNG,stimuli/bead_g.PNG,1,2,up
,2023-09-28_10h01.58.567,Fish_Game,2023.1.3,MacIntel,60.06006006,,,,,,,,,,,,,9,,,,,,,,,,,,right,0.4442,,0,0.5,9/28/23,0,8,8,8,1,stimuli/bead_y.PNG,stimuli/bead_y.PNG,stimuli/bead_g.PNG,stimuli/bead_g.PNG,stimuli/bead_b.PNG,1,2,up
,2023-09-28_10h01.58.567,Fish_Game,2023.1.3,MacIntel,60.06006006,,,,,,,,,,,,,10,,,,,,,,,,,,up,0.1019,,1,1.5,9/28/23,0,9,9,9,1,stimuli/bead_y.PNG,stimuli/bead_y.PNG,stimuli/bead_y.PNG,stimuli/bead_g.PNG,stimuli/bead_g.PNG,1,2,up
,2023-09-28_10h01.58.567,Fish_Game,2023.1.3,MacIntel,60.06006006,,,,,,,,,,,,,11,,,,,,,,,,,,up,0.006,,1,0.5,9/28/23,0,10,10,10,1,stimuli/bead_b.PNG,stimuli/bead_y.PNG,stimuli/bead_y.PNG,stimuli/bead_y.PNG,stimuli/bead_g.PNG,1,2,up
,2023-09-28_10h01.58.567,Fish_Game,2023.1.3,MacIntel,60.06006006,,,,,,,,,,,,,12,,,,,,,,,,,,up,0.3088,,1,1,9/28/23,0,11,11,11,1,stimuli/bead_y.PNG,stimuli/bead_b.PNG,stimuli/bead_y.PNG,stimuli/bead_y.PNG,stimuli/bead_y.PNG,1,2,up
,2023-09-28_10h01.58.567,Fish_Game,2023.1.3,MacIntel,60.06006006,,,,,,,,,,,,,13,,,,,,,,,,,,up,0.2443,,1,1.5,9/28/23,0,12,12,12,1,stimuli/bead_y.PNG,stimuli/bead_y.PNG,stimuli/bead_b.PNG,stimuli/bead_y.PNG,stimuli/bead_y.PNG,1,2,up
,2023-09-28_10h01.58.567,Fish_Game,2023.1.3,MacIntel,60.06006006,,,,,,,,,,,,,14,,,,,,,,,,,,up,0.019,,1,1,9/28/23,0,13,13,13,1,stimuli/bead_y.PNG,stimuli/bead_y.PNG,stimuli/bead_y.PNG,stimuli/bead_b.PNG,stimuli/bead_y.PNG,1,2,up
,2023-09-28_10h01.58.567,Fish_Game,2023.1.3,MacIntel,60.06006006,,,,,,,,,,,,,15,,,,,,,,,,,,up,0.3619,,0,0.5,9/28/23,0,14,14,14,1,stimuli/bead_b.PNG,stimuli/bead_y.PNG,stimuli/bead_y.PNG,stimuli/bead_y.PNG,stimuli/bead_b.PNG,0,1,left
,2023-09-28_10h01.58.567,Fish_Game,2023.1.3,MacIntel,60.06006006,,,,,,,,,,,,,16,,,,,,,,,,,,up,0.4295,,0,0.5,9/28/23,0,15,15,15,1,stimuli/bead_g.PNG,stimuli/bead_b.PNG,stimuli/bead_y.PNG,stimuli/bead_y.PNG,stimuli/bead_y.PNG,0,1,left
,2023-09-28_10h01.58.567,Fish_Game,2023.1.3,MacIntel,60.06006006,,,,,,,,,,,,,17,,,,,,,,,,,,left,0.8187,,1,0.5,9/28/23,0,16,16,16,1,stimuli/bead_b.PNG,stimuli/bead_g.PNG,stimuli/bead_b.PNG,stimuli/bead_y.PNG,stimuli/bead_y.PNG,0,1,left
,2023-09-28_10h01.58.567,Fish_Game,2023.1.3,MacIntel,60.06006006,,,,,,,,,,,,,18,,,,,,,,,,,,left,0.3513,,1,1,9/28/23,0,17,17,17,1,stimuli/bead_b.PNG,stimuli/bead_b.PNG,stimuli/bead_g.PNG,stimuli/bead_b.PNG,stimuli/bead_y.PNG,0,1,left
,2023-09-28_10h01.58.567,Fish_Game,2023.1.3,MacIntel,60.06006006,,,,,,,,,,,,,19,,,,,,,,,,,,left,0.3209,,1,1.5,9/28/23,0,18,18,18,1,stimuli/bead_b.PNG,stimuli/bead_b.PNG,stimuli/bead_b.PNG,stimuli/bead_g.PNG,stimuli/bead_b.PNG,0,1,left
,2023-09-28_10h01.58.567,Fish_Game,2023.1.3,MacIntel,60.06006006,,,,,,,,,,,,,20,,,,,,,,,,,,left,0.4537,,1,1.5,9/28/23,0,19,19,19,1,stimuli/bead_y.PNG,stimuli/bead_b.PNG,stimuli/bead_b.PNG,stimuli/bead_b.PNG,stimuli/bead_g.PNG,0,1,left
,2023-09-28_10h01.58.567,Fish_Game,2023.1.3,MacIntel,60.06006006,,,,,,,,,,,,,1,,,,,,,,,,,,left,0.4987,,1,1,9/28/23,0,0,0,0,1,stimuli/bead_b.PNG,stimuli/blank.jpg,stimuli/blank.jpg,stimuli/blank.jpg,stimuli/blank.jpg,0,1,left
,2023-09-28_10h01.58.567,Fish_Game,2023.1.3,MacIntel,60.06006006,,,,,,,,,,,,,2,,,,,,,,,,,,left,0.5829,,1,1,9/28/23,0,1,1,1,1,stimuli/bead_g.PNG,stimuli/bead_b.PNG,stimuli/blank.jpg,stimuli/blank.jpg,stimuli/blank.jpg,0,1,left
,2023-09-28_10h01.58.567,Fish_Game,2023.1.3,MacIntel,60.06006006,,,,,,,,,,,,,3,,,,,,,,,,,,left,0.4058,,1,0.5,9/28/23,0,2,2,2,1,stimuli/bead_b.PNG,stimuli/bead_g.PNG,stimuli/bead_b.PNG,stimuli/blank.jpg,stimuli/blank.jpg,0,1,left
,2023-09-28_10h01.58.567,Fish_Game,2023.1.3,MacIntel,60.06006006,,,,,,,,,,,,,4,,,,,,,,,,,,up,0.8184,,0,0.5,9/28/23,0,3,3,3,1,stimuli/bead_y.PNG,stimuli/bead_b.PNG,stimuli/bead_g.PNG,stimuli/bead_b.PNG,stimuli/blank.jpg,0,1,left
,2023-09-28_10h01.58.567,Fish_Game,2023.1.3,MacIntel,60.06006006,,,,,,,,,,,,,5,,,,,,,,,,,,left,0.5337,,1,0.5,9/28/23,0,4,4,4,1,stimuli/bead_b.PNG,stimuli/bead_y.PNG,stimuli/bead_b.PNG,stimuli/bead_g.PNG,stimuli/bead_b.PNG,0,1,left
,2023-09-28_10h01.58.567,Fish_Game,2023.1.3,MacIntel,60.06006006,,,,,,,,,,,,,6,,,,,,,,,,,,left,0.3412,,1,1.5,9/28/23,0,5,5,5,1,stimuli/bead_b.PNG,stimuli/bead_b.PNG,stimuli/bead_y.PNG,stimuli/bead_b.PNG,stimuli/bead_g.PNG,0,1,left
,2023-09-28_10h01.58.567,Fish_Game,2023.1.3,MacIntel,60.06006006,,,,,,,,,,,,,7,,,,,,,,,,,,left,0.449,,1,0.5,9/28/23,0,6,6,6,1,stimuli/bead_y.PNG,stimuli/bead_b.PNG,stimuli/bead_b.PNG,stimuli/bead_y.PNG,stimuli/bead_b.PNG,0,1,left
,2023-09-28_10h01.58.567,Fish_Game,2023.1.3,MacIntel,60.06006006,,,,,,,,,,,,,8,,,,,,,,,,,,left,0.4148,,1,0.5,9/28/23,0,7,7,7,1,stimuli/bead_b.PNG,stimuli/bead_y.PNG,stimuli/bead_b.PNG,stimuli/bead_b.PNG,stimuli/bead_y.PNG,0,1,left
,2023-09-28_10h01.58.567,Fish_Game,2023.1.3,MacIntel,60.06006006,,,,,,,,,,,,,9,,,,,,,,,,,,left,0.8426,,0,1,9/28/23,0,8,8,8,1,stimuli/bead_g.PNG,stimuli/bead_b.PNG,stimuli/bead_y.PNG,stimuli/bead_b.PNG,stimuli/bead_b.PNG,2,3,right
,2023-09-28_10h01.58.567,Fish_Game,2023.1.3,MacIntel,60.06006006,,,,,,,,,,,,,10,,,,,,,,,,,,left,0.3631,,0,1,9/28/23,0,9,9,9,1,stimuli/bead_g.PNG,stimuli/bead_g.PNG,stimuli/bead_b.PNG,stimuli/bead_y.PNG,stimuli/bead_b.PNG,2,3,right
,2023-09-28_10h01.58.567,Fish_Game,2023.1.3,MacIntel,60.06006006,,,,,,,,,,,,,11,,,,,,,,,,,,right,0.066,,1,1,9/28/23,0,10,10,10,1,stimuli/bead_y.PNG,stimuli/bead_g.PNG,stimuli/bead_g.PNG,stimuli/bead_b.PNG,stimuli/bead_y.PNG,2,3,right
,2023-09-28_10h01.58.567,Fish_Game,2023.1.3,MacIntel,60.06006006,,,,,,,,,,,,,12,,,,,,,,,,,,right,0.3228,,1,1.5,9/28/23,0,11,11,11,1,stimuli/bead_g.PNG,stimuli/bead_y.PNG,stimuli/bead_g.PNG,stimuli/bead_g.PNG,stimuli/bead_b.PNG,2,3,right
,2023-09-28_10h01.58.567,Fish_Game,2023.1.3,MacIntel,60.06006006,,,,,,,,,,,,,13,,,,,,,,,,,,right,0.3044,,1,1.5,9/28/23,0,12,12,12,1,stimuli/bead_g.PNG,stimuli/bead_g.PNG,stimuli/bead_y.PNG,stimuli/bead_g.PNG,stimuli/bead_g.PNG,2,3,right
,2023-09-28_10h01.58.567,Fish_Game,2023.1.3,MacIntel,60.06006006,,,,,,,,,,,,,14,,,,,,,,,,,,right,0.5913,,1,0.5,9/28/23,0,13,13,13,1,stimuli/bead_g.PNG,stimuli/bead_g.PNG,stimuli/bead_g.PNG,stimuli/bead_y.PNG,stimuli/bead_g.PNG,2,3,right
,2023-09-28_10h01.58.567,Fish_Game,2023.1.3,MacIntel,60.06006006,,,,,,,,,,,,,15,,,,,,,,,,,,right,0.3269,,1,1.5,9/28/23,0,14,14,14,1,stimuli/bead_g.PNG,stimuli/bead_g.PNG,stimuli/bead_g.PNG,stimuli/bead_g.PNG,stimuli/bead_y.PNG,2,3,right
,2023-09-28_10h01.58.567,Fish_Game,2023.1.3,MacIntel,60.06006006,,,,,,,,,,,,,16,,,,,,,,,,,,right,0.4878,,1,0.5,9/28/23,0,15,15,15,1,stimuli/bead_b.PNG,stimuli/bead_g.PNG,stimuli/bead_g.PNG,stimuli/bead_g.PNG,stimuli/bead_g.PNG,2,3,right
,2023-09-28_10h01.58.567,Fish_Game,2023.1.3,MacIntel,60.06006006,,,,,,,,,,,,,17,,,,,,,,,,,,right,0.3397,,1,1,9/28/23,0,16,16,16,1,stimuli/bead_g.PNG,stimuli/bead_b.PNG,stimuli/bead_g.PNG,stimuli/bead_g.PNG,stimuli/bead_g.PNG,2,3,right
,2023-09-28_10h01.58.567,Fish_Game,2023.1.3,MacIntel,60.06006006,,,,,,,,,,,,,18,,,,,,,,,,,,right,0.3154,,1,0.5,9/28/23,0,17,17,17,1,stimuli/bead_b.PNG,stimuli/bead_g.PNG,stimuli/bead_b.PNG,stimuli/bead_g.PNG,stimuli/bead_g.PNG,2,3,right
,2023-09-28_10h01.58.567,Fish_Game,2023.1.3,MacIntel,60.06006006,,,,,,,,,,,,,19,,,,,,,,,,,,right,0.2419,,1,1,9/28/23,0,18,18,18,1,stimuli/bead_g.PNG,stimuli/bead_b.PNG,stimuli/bead_g.PNG,stimuli/bead_b.PNG,stimuli/bead_g.PNG,2,3,right
,2023-09-28_10h01.58.567,Fish_Game,2023.1.3,MacIntel,60.06006006,,,,,,,,,,,,,20,,,,,,,,,,,,right,0.2563,,1,1,9/28/23,0,19,19,19,1,stimuli/bead_g.PNG,stimuli/bead_g.PNG,stimuli/bead_b.PNG,stimuli/bead_g.PNG,stimuli/bead_b.PNG,2,3,right
,2023-09-28_10h01.58.567,Fish_Game,2023.1.3,MacIntel,60.06006006,,,,,,,,,,,,,1,,,,,,,,,,,,up,0.7718,,1,1,9/28/23,0,0,0,0,1,stimuli/bead_y.PNG,stimuli/blank.jpg,stimuli/blank.jpg,stimuli/blank.jpg,stimuli/blank.jpg,1,2,up
,2023-09-28_10h01.58.567,Fish_Game,2023.1.3,MacIntel,60.06006006,,,,,,,,,,,,,2,,,,,,,,,,,,up,0.3472,,1,1.5,9/28/23,0,1,1,1,1,stimuli/bead_y.PNG,stimuli/bead_y.PNG,stimuli/blank.jpg,stimuli/blank.jpg,stimuli/blank.jpg,1,2,up
,2023-09-28_10h01.58.567,Fish_Game,2023.1.3,MacIntel,60.06006006,,,,,,,,,,,,,3,,,,,,,,,,,,up,0.6012,,1,1.5,9/28/23,0,2,2,2,1,stimuli/bead_g.PNG,stimuli/bead_y.PNG,stimuli/bead_y.PNG,stimuli/blank.jpg,stimuli/blank.jpg,1,2,up
,2023-09-28_10h01.58.567,Fish_Game,2023.1.3,MacIntel,60.06006006,,,,,,,,,,,,,4,,,,,,,,,,,,up,0.3667,,1,1,9/28/23,0,3,3,3,1,stimuli/bead_g.PNG,stimuli/bead_g.PNG,stimuli/bead_y.PNG,stimuli/bead_y.PNG,stimuli/blank.jpg,1,2,up
,2023-09-28_10h01.58.567,Fish_Game,2023.1.3,MacIntel,60.06006006,,,,,,,,,,,,,5,,,,,,,,,,,,right,0.5005,,0,0.5,9/28/23,0,4,4,4,1,stimuli/bead_y.PNG,stimuli/bead_g.PNG,stimuli/bead_g.PNG,stimuli/bead_y.PNG,stimuli/bead_y.PNG,1,2,up
,2023-09-28_10h01.58.567,Fish_Game,2023.1.3,MacIntel,60.06006006,,,,,,,,,,,,,6,,,,,,,,,,,,up,0.3549,,1,1.5,9/28/23,0,5,5,5,1,stimuli/bead_y.PNG,stimuli/bead_y.PNG,stimuli/bead_g.PNG,stimuli/bead_g.PNG,stimuli/bead_y.PNG,1,2,up
,2023-09-28_10h01.58.567,Fish_Game,2023.1.3,MacIntel,60.06006006,,,,,,,,,,,,,7,,,,,,,,,,,,up,0.353,,1,1.5,9/28/23,0,6,6,6,1,stimuli/bead_y.PNG,stimuli/bead_y.PNG,stimuli/bead_y.PNG,stimuli/bead_g.PNG,stimuli/bead_g.PNG,1,2,up
,2023-09-28_10h01.58.567,Fish_Game,2023.1.3,MacIntel,60.06006006,,,,,,,,,,,,,8,,,,,,,,,,,,up,0.6836,,0,0.5,9/28/23,0,7,7,7,1,stimuli/bead_b.PNG,stimuli/bead_y.PNG,stimuli/bead_y.PNG,stimuli/bead_y.PNG,stimuli/bead_g.PNG,0,1,left
,2023-09-28_10h01.58.567,Fish_Game,2023.1.3,MacIntel,60.06006006,,,,,,,,,,,,,9,,,,,,,,,,,,left,0.8898,,1,1,9/28/23,0,8,8,8,1,stimuli/bead_b.PNG,stimuli/bead_b.PNG,stimuli/bead_y.PNG,stimuli/bead_y.PNG,stimuli/bead_y.PNG,0,1,left
,2023-09-28_10h01.58.567,Fish_Game,2023.1.3,MacIntel,60.06006006,,,,,,,,,,,,,10,,,,,,,,,,,,left,0.3344,,1,1,9/28/23,0,9,9,9,1,stimuli/bead_b.PNG,stimuli/bead_b.PNG,stimuli/bead_b.PNG,stimuli/bead_y.PNG,stimuli/bead_y.PNG,0,1,left
,2023-09-28_10h01.58.567,Fish_Game,2023.1.3,MacIntel,60.06006006,,,,,,,,,,,,,11,,,,,,,,,,,,left,0.5435,,1,0.5,9/28/23,0,10,10,10,1,stimuli/bead_g.PNG,stimuli/bead_b.PNG,stimuli/bead_b.PNG,stimuli/bead_b.PNG,stimuli/bead_y.PNG,0,1,left
,2023-09-28_10h01.58.567,Fish_Game,2023.1.3,MacIntel,60.06006006,,,,,,,,,,,,,12,,,,,,,,,,,,left,0.3882,,1,0.5,9/28/23,0,11,11,11,1,stimuli/bead_b.PNG,stimuli/bead_g.PNG,stimuli/bead_b.PNG,stimuli/bead_b.PNG,stimuli/bead_b.PNG,0,1,left
,2023-09-28_10h01.58.567,Fish_Game,2023.1.3,MacIntel,60.06006006,,,,,,,,,,,,,13,,,,,,,,,,,,left,0.303,,1,1,9/28/23,0,12,12,12,1,stimuli/bead_y.PNG,stimuli/bead_b.PNG,stimuli/bead_g.PNG,stimuli/bead_b.PNG,stimuli/bead_b.PNG,0,1,left
,2023-09-28_10h01.58.567,Fish_Game,2023.1.3,MacIntel,60.06006006,,,,,,,,,,,,,14,,,,,,,,,,,,left,0.3203,,1,1,9/28/23,0,13,13,13,1,stimuli/bead_b.PNG,stimuli/bead_y.PNG,stimuli/bead_b.PNG,stimuli/bead_g.PNG,stimuli/bead_b.PNG,0,1,left
,2023-09-28_10h01.58.567,Fish_Game,2023.1.3,MacIntel,60.06006006,,,,,,,,,,,,,15,,,,,,,,,,,,left,0.3852,,1,1.5,9/28/23,0,14,14,14,1,stimuli/bead_b.PNG,stimuli/bead_b.PNG,stimuli/bead_y.PNG,stimuli/bead_b.PNG,stimuli/bead_g.PNG,0,1,left
,2023-09-28_10h01.58.567,Fish_Game,2023.1.3,MacIntel,60.06006006,,,,,,,,,,,,,16,,,,,,,,,,,,left,0.3883,,1,1,9/28/23,0,15,15,15,1,stimuli/bead_b.PNG,stimuli/bead_b.PNG,stimuli/bead_b.PNG,stimuli/bead_y.PNG,stimuli/bead_b.PNG,0,1,left
,2023-09-28_10h01.58.567,Fish_Game,2023.1.3,MacIntel,60.06006006,,,,,,,,,,,,,17,,,,,,,,,,,,left,0.4462,,1,0.5,9/28/23,0,16,16,16,1,stimuli/bead_g.PNG,stimuli/bead_b.PNG,stimuli/bead_b.PNG,stimuli/bead_b.PNG,stimuli/bead_y.PNG,0,1,left
,2023-09-28_10h01.58.567,Fish_Game,2023.1.3,MacIntel,60.06006006,,,,,,,,,,,,,18,,,,,,,,,,,,left,0.293,,1,1,9/28/23,0,17,17,17,1,stimuli/bead_b.PNG,stimuli/bead_g.PNG,stimuli/bead_b.PNG,stimuli/bead_b.PNG,stimuli/bead_b.PNG,0,1,left
,2023-09-28_10h01.58.567,Fish_Game,2023.1.3,MacIntel,60.06006006,,,,,,,,,,,,,19,,,,,,,,,,,,left,0.3735,,1,1,9/28/23,0,18,18,18,1,stimuli/bead_b.PNG,stimuli/bead_b.PNG,stimuli/bead_g.PNG,stimuli/bead_b.PNG,stimuli/bead_b.PNG,0,1,left
,2023-09-28_10h01.58.567,Fish_Game,2023.1.3,MacIntel,60.06006006,,,,,,,,,,,,,20,,,,,,,,,,,,left,0.2983,,1,1,9/28/23,0,19,19,19,1,stimuli/bead_b.PNG,stimuli/bead_b.PNG,stimuli/bead_b.PNG,stimuli/bead_g.PNG,stimuli/bead_b.PNG,0,1,left
,2023-09-28_10h01.58.567,Fish_Game,2023.1.3,MacIntel,60.06006006,,,,,,,,,,,,,,,,,,,,,,,,,,,,,,,,,,,,,,,,,,,
