welcome_key.keys,welcome_key.rt,welcome_key.duration,participant,date,expName,psychopyVersion,OS,frameRate,ins1_key.keys,ins1_key.rt,ins1_key.duration,key_resp_2.keys,key_resp_2.rt,key_resp_2.duration,fish_key_2.corr,prac_trials.thisRepN,prac_trials.thisTrialN,prac_trials.thisN,prac_trials.thisIndex,prac_trials.ran,trial,fish1_p,fish2_p,fish3_p,fish4_p,fish5_p,pond_p,pond_p2,pond_p3,ExpStart_key.keys,ExpStart_key.rt,ExpStart_key.duration,block number,block assignment,fish_key_button.keys,fish_key_button.rt,fish_key_button.duration,fish_key.corr,fish_interval,key_resp_time,trials.thisRepN,trials.thisTrialN,trials.thisN,trials.thisIndex,trials.ran,fish1,fish2,fish3,fish4,fish5,pond,pond2,pond3
space,51.1315,,,2023-10-10_10h57.54.936,Fish_Game,2023.1.3,MacIntel,60.0024001,,,,,,,,,,,,,,,,,,,,,,,,,,,,,,,,,,,,,,,,,,,,,
,,,,2023-10-10_10h57.54.936,Fish_Game,2023.1.3,MacIntel,60.0024001,,,,,,,,,,,,,,,,,,,,,,,,,,,,,,,,,,,,,,,,,,,,,
,,,,2023-10-10_10h57.54.936,Fish_Game,2023.1.3,MacIntel,60.0024001,space,23.359,,,,,,,,,,,,,,,,,,,,,,,,,,,,,,,,,,,,,,,,,,,
,,,,2023-10-10_10h57.54.936,Fish_Game,2023.1.3,MacIntel,60.0024001,,,,,,,,,,,,,,,,,,,,,,,,,,,,,,,,,,,,,,,,,,,,,
,,,,2023-10-10_10h57.54.936,Fish_Game,2023.1.3,MacIntel,60.0024001,,,,,,,,,,,,,,,,,,,,,,,,,,,,,,,,,,,,,,,,,,,,,
,,,,2023-10-10_10h57.54.936,Fish_Game,2023.1.3,MacIntel,60.0024001,,,,left,0.7697,,1,0,0,0,0,1,1,stimuli/bead_b.PNG,stimuli/blank.jpg,stimuli/blank.jpg,stimuli/blank.jpg,stimuli/blank.jpg,0,1,left,,,,,,,,,,,,,,,,,,,,,,,,
,,,,2023-10-10_10h57.54.936,Fish_Game,2023.1.3,MacIntel,60.0024001,,,,left,0.3847,,1,0,1,1,1,1,2,stimuli/bead_b.PNG,stimuli/bead_b.PNG,stimuli/blank.jpg,stimuli/blank.jpg,stimuli/blank.jpg,0,1,left,,,,,,,,,,,,,,,,,,,,,,,,
,,,,2023-10-10_10h57.54.936,Fish_Game,2023.1.3,MacIntel,60.0024001,,,,right,0.7112,,0,0,2,2,2,1,3,stimuli/bead_g.PNG,stimuli/bead_b.PNG,stimuli/bead_b.PNG,stimuli/blank.jpg,stimuli/blank.jpg,0,1,left,,,,,,,,,,,,,,,,,,,,,,,,
,,,,2023-10-10_10h57.54.936,Fish_Game,2023.1.3,MacIntel,60.0024001,,,,left,0.2895,,1,0,3,3,3,1,4,stimuli/bead_b.PNG,stimuli/bead_g.PNG,stimuli/bead_b.PNG,stimuli/bead_b.PNG,stimuli/blank.jpg,0,1,left,,,,,,,,,,,,,,,,,,,,,,,,
,,,,2023-10-10_10h57.54.936,Fish_Game,2023.1.3,MacIntel,60.0024001,,,,left,0.5045,,1,0,4,4,4,1,5,stimuli/bead_b.PNG,stimuli/bead_b.PNG,stimuli/bead_g.PNG,stimuli/bead_b.PNG,stimuli/bead_b.PNG,0,1,left,,,,,,,,,,,,,,,,,,,,,,,,
,,,,2023-10-10_10h57.54.936,Fish_Game,2023.1.3,MacIntel,60.0024001,,,,left,0.9675,,1,0,5,5,5,1,6,stimuli/bead_y.PNG,stimuli/bead_b.PNG,stimuli/bead_b.PNG,stimuli/bead_g.PNG,stimuli/bead_b.PNG,0,1,left,,,,,,,,,,,,,,,,,,,,,,,,
,,,,2023-10-10_10h57.54.936,Fish_Game,2023.1.3,MacIntel,60.0024001,,,,left,0.5586,,1,0,6,6,6,1,7,stimuli/bead_b.PNG,stimuli/bead_y.PNG,stimuli/bead_b.PNG,stimuli/bead_b.PNG,stimuli/bead_g.PNG,0,1,left,,,,,,,,,,,,,,,,,,,,,,,,
,,,,2023-10-10_10h57.54.936,Fish_Game,2023.1.3,MacIntel,60.0024001,,,,up,0.41,,1,0,7,7,7,1,8,stimuli/bead_y.PNG,stimuli/bead_b.PNG,stimuli/bead_y.PNG,stimuli/bead_b.PNG,stimuli/bead_b.PNG,1,2,up,,,,,,,,,,,,,,,,,,,,,,,,
,,,,2023-10-10_10h57.54.936,Fish_Game,2023.1.3,MacIntel,60.0024001,,,,up,0.4321,,1,0,8,8,8,1,9,stimuli/bead_y.PNG,stimuli/bead_y.PNG,stimuli/bead_b.PNG,stimuli/bead_y.PNG,stimuli/bead_b.PNG,1,2,up,,,,,,,,,,,,,,,,,,,,,,,,
,,,,2023-10-10_10h57.54.936,Fish_Game,2023.1.3,MacIntel,60.0024001,,,,up,0.4409,,1,0,9,9,9,1,10,stimuli/bead_b.PNG,stimuli/bead_y.PNG,stimuli/bead_y.PNG,stimuli/bead_b.PNG,stimuli/bead_y.PNG,1,2,up,,,,,,,,,,,,,,,,,,,,,,,,
,,,,2023-10-10_10h57.54.936,Fish_Game,2023.1.3,MacIntel,60.0024001,,,,up,0.3251,,1,0,10,10,10,1,11,stimuli/bead_y.PNG,stimuli/bead_b.PNG,stimuli/bead_y.PNG,stimuli/bead_y.PNG,stimuli/bead_b.PNG,1,2,up,,,,,,,,,,,,,,,,,,,,,,,,
,,,,2023-10-10_10h57.54.936,Fish_Game,2023.1.3,MacIntel,60.0024001,,,,up,0.3956,,1,0,11,11,11,1,12,stimuli/bead_y.PNG,stimuli/bead_y.PNG,stimuli/bead_b.PNG,stimuli/bead_y.PNG,stimuli/bead_y.PNG,1,2,up,,,,,,,,,,,,,,,,,,,,,,,,
,,,,2023-10-10_10h57.54.936,Fish_Game,2023.1.3,MacIntel,60.0024001,,,,up,0.3852,,1,0,12,12,12,1,13,stimuli/bead_b.PNG,stimuli/bead_y.PNG,stimuli/bead_y.PNG,stimuli/bead_b.PNG,stimuli/bead_y.PNG,1,2,up,,,,,,,,,,,,,,,,,,,,,,,,
,,,,2023-10-10_10h57.54.936,Fish_Game,2023.1.3,MacIntel,60.0024001,,,,up,0.4016,,1,0,13,13,13,1,14,stimuli/bead_y.PNG,stimuli/bead_b.PNG,stimuli/bead_y.PNG,stimuli/bead_y.PNG,stimuli/bead_b.PNG,1,2,up,,,,,,,,,,,,,,,,,,,,,,,,
,,,,2023-10-10_10h57.54.936,Fish_Game,2023.1.3,MacIntel,60.0024001,,,,up,0.3628,,1,0,14,14,14,1,15,stimuli/bead_y.PNG,stimuli/bead_y.PNG,stimuli/bead_b.PNG,stimuli/bead_y.PNG,stimuli/bead_y.PNG,1,2,up,,,,,,,,,,,,,,,,,,,,,,,,
,,,,2023-10-10_10h57.54.936,Fish_Game,2023.1.3,MacIntel,60.0024001,,,,right,0.6921,,1,0,0,0,0,1,1,stimuli/bead_g.PNG,stimuli/blank.jpg,stimuli/blank.jpg,stimuli/blank.jpg,stimuli/blank.jpg,2,3,right,,,,,,,,,,,,,,,,,,,,,,,,
,,,,2023-10-10_10h57.54.936,Fish_Game,2023.1.3,MacIntel,60.0024001,,,,right,0.4898,,1,0,1,1,1,1,2,stimuli/bead_g.PNG,stimuli/bead_g.PNG,stimuli/blank.jpg,stimuli/blank.jpg,stimuli/blank.jpg,2,3,right,,,,,,,,,,,,,,,,,,,,,,,,
,,,,2023-10-10_10h57.54.936,Fish_Game,2023.1.3,MacIntel,60.0024001,,,,right,0.5425,,1,0,2,2,2,1,3,stimuli/bead_b.PNG,stimuli/bead_g.PNG,stimuli/bead_g.PNG,stimuli/blank.jpg,stimuli/blank.jpg,2,3,right,,,,,,,,,,,,,,,,,,,,,,,,
,,,,2023-10-10_10h57.54.936,Fish_Game,2023.1.3,MacIntel,60.0024001,,,,right,0.4962,,1,0,3,3,3,1,4,stimuli/bead_g.PNG,stimuli/bead_b.PNG,stimuli/bead_g.PNG,stimuli/bead_g.PNG,stimuli/blank.jpg,2,3,right,,,,,,,,,,,,,,,,,,,,,,,,
,,,,2023-10-10_10h57.54.936,Fish_Game,2023.1.3,MacIntel,60.0024001,,,,right,1.3834,,1,0,4,4,4,1,5,stimuli/bead_b.PNG,stimuli/bead_g.PNG,stimuli/bead_b.PNG,stimuli/bead_g.PNG,stimuli/bead_g.PNG,2,3,right,,,,,,,,,,,,,,,,,,,,,,,,
,,,,2023-10-10_10h57.54.936,Fish_Game,2023.1.3,MacIntel,60.0024001,,,,right,0.5138,,1,0,5,5,5,1,6,stimuli/bead_g.PNG,stimuli/bead_b.PNG,stimuli/bead_g.PNG,stimuli/bead_b.PNG,stimuli/bead_g.PNG,2,3,right,,,,,,,,,,,,,,,,,,,,,,,,
,,,,2023-10-10_10h57.54.936,Fish_Game,2023.1.3,MacIntel,60.0024001,,,,right,0.6758,,1,0,6,6,6,1,7,stimuli/bead_g.PNG,stimuli/bead_g.PNG,stimuli/bead_b.PNG,stimuli/bead_g.PNG,stimuli/bead_b.PNG,2,3,right,,,,,,,,,,,,,,,,,,,,,,,,
,,,,2023-10-10_10h57.54.936,Fish_Game,2023.1.3,MacIntel,60.0024001,,,,right,0.391,,1,0,7,7,7,1,8,stimuli/bead_g.PNG,stimuli/bead_g.PNG,stimuli/bead_g.PNG,stimuli/bead_b.PNG,stimuli/bead_g.PNG,2,3,right,,,,,,,,,,,,,,,,,,,,,,,,
,,,,2023-10-10_10h57.54.936,Fish_Game,2023.1.3,MacIntel,60.0024001,,,,right,0.8386,,0,0,8,8,8,1,9,stimuli/bead_y.PNG,stimuli/bead_g.PNG,stimuli/bead_g.PNG,stimuli/bead_g.PNG,stimuli/bead_b.PNG,1,2,up,,,,,,,,,,,,,,,,,,,,,,,,
,,,,2023-10-10_10h57.54.936,Fish_Game,2023.1.3,MacIntel,60.0024001,,,,up,0.4548,,1,0,9,9,9,1,10,stimuli/bead_y.PNG,stimuli/bead_y.PNG,stimuli/bead_g.PNG,stimuli/bead_g.PNG,stimuli/bead_g.PNG,1,2,up,,,,,,,,,,,,,,,,,,,,,,,,
,,,,2023-10-10_10h57.54.936,Fish_Game,2023.1.3,MacIntel,60.0024001,,,,up,0.4047,,1,0,10,10,10,1,11,stimuli/bead_y.PNG,stimuli/bead_y.PNG,stimuli/bead_y.PNG,stimuli/bead_g.PNG,stimuli/bead_g.PNG,1,2,up,,,,,,,,,,,,,,,,,,,,,,,,
,,,,2023-10-10_10h57.54.936,Fish_Game,2023.1.3,MacIntel,60.0024001,,,,up,0.4356,,1,0,11,11,11,1,12,stimuli/bead_g.PNG,stimuli/bead_y.PNG,stimuli/bead_y.PNG,stimuli/bead_y.PNG,stimuli/bead_g.PNG,1,2,up,,,,,,,,,,,,,,,,,,,,,,,,
,,,,2023-10-10_10h57.54.936,Fish_Game,2023.1.3,MacIntel,60.0024001,,,,up,0.4421,,1,0,12,12,12,1,13,stimuli/bead_y.PNG,stimuli/bead_g.PNG,stimuli/bead_y.PNG,stimuli/bead_y.PNG,stimuli/bead_y.PNG,1,2,up,,,,,,,,,,,,,,,,,,,,,,,,
,,,,2023-10-10_10h57.54.936,Fish_Game,2023.1.3,MacIntel,60.0024001,,,,up,0.2888,,1,0,13,13,13,1,14,stimuli/bead_y.PNG,stimuli/bead_y.PNG,stimuli/bead_g.PNG,stimuli/bead_y.PNG,stimuli/bead_y.PNG,1,2,up,,,,,,,,,,,,,,,,,,,,,,,,
,,,,2023-10-10_10h57.54.936,Fish_Game,2023.1.3,MacIntel,60.0024001,,,,up,0.506,,1,0,14,14,14,1,15,stimuli/bead_b.PNG,stimuli/bead_y.PNG,stimuli/bead_y.PNG,stimuli/bead_g.PNG,stimuli/bead_y.PNG,1,2,up,,,,,,,,,,,,,,,,,,,,,,,,
,,,,2023-10-10_10h57.54.936,Fish_Game,2023.1.3,MacIntel,60.0024001,,,,,,,,,,,,,1,,,,,,,,,space,3.4483,,1,1condition/mainTrials10.xlsx,up,0.5874,,0,1,283.6642,0,0,0,0,1,stimuli/bead_y.PNG,stimuli/blank.jpg,stimuli/blank.jpg,stimuli/blank.jpg,stimuli/blank.jpg,0,1,left
,,,,2023-10-10_10h57.54.936,Fish_Game,2023.1.3,MacIntel,60.0024001,,,,,,,,,,,,,2,,,,,,,,,,,,,,up,0.737,,0,0.5,285.4317,0,1,1,1,1,stimuli/bead_b.PNG,stimuli/bead_y.PNG,stimuli/blank.jpg,stimuli/blank.jpg,stimuli/blank.jpg,0,1,left
,,,,2023-10-10_10h57.54.936,Fish_Game,2023.1.3,MacIntel,60.0024001,,,,,,,,,,,,,3,,,,,,,,,,,,,,up,0.4084,,0,1.5,287.8631,0,2,2,2,1,stimuli/bead_b.PNG,stimuli/bead_b.PNG,stimuli/bead_y.PNG,stimuli/blank.jpg,stimuli/blank.jpg,0,1,left
,,,,2023-10-10_10h57.54.936,Fish_Game,2023.1.3,MacIntel,60.0024001,,,,,,,,,,,,,4,,,,,,,,,,,,,,left,0.303,,1,0.5,289.198,0,3,3,3,1,stimuli/bead_b.PNG,stimuli/bead_b.PNG,stimuli/bead_b.PNG,stimuli/bead_y.PNG,stimuli/blank.jpg,0,1,left
,,,,2023-10-10_10h57.54.936,Fish_Game,2023.1.3,MacIntel,60.0024001,,,,,,,,,,,,,5,,,,,,,,,,,,,,left,0.3256,,1,0.5,290.5462,0,4,4,4,1,stimuli/bead_b.PNG,stimuli/bead_b.PNG,stimuli/bead_b.PNG,stimuli/bead_b.PNG,stimuli/bead_y.PNG,0,1,left
,,,,2023-10-10_10h57.54.936,Fish_Game,2023.1.3,MacIntel,60.0024001,,,,,,,,,,,,,6,,,,,,,,,,,,,,left,0.5878,,1,1.5,293.1547,0,5,5,5,1,stimuli/bead_g.PNG,stimuli/bead_b.PNG,stimuli/bead_b.PNG,stimuli/bead_b.PNG,stimuli/bead_b.PNG,0,1,left
,,,,2023-10-10_10h57.54.936,Fish_Game,2023.1.3,MacIntel,60.0024001,,,,,,,,,,,,,7,,,,,,,,,,,,,,left,0.497,,1,0.5,294.6871,0,6,6,6,1,stimuli/bead_b.PNG,stimuli/bead_g.PNG,stimuli/bead_b.PNG,stimuli/bead_b.PNG,stimuli/bead_b.PNG,0,1,left
,,,,2023-10-10_10h57.54.936,Fish_Game,2023.1.3,MacIntel,60.0024001,,,,,,,,,,,,,8,,,,,,,,,,,,,,left,0.4173,,1,1,296.6373,0,7,7,7,1,stimuli/bead_b.PNG,stimuli/bead_b.PNG,stimuli/bead_g.PNG,stimuli/bead_b.PNG,stimuli/bead_b.PNG,0,1,left
,,,,2023-10-10_10h57.54.936,Fish_Game,2023.1.3,MacIntel,60.0024001,,,,,,,,,,,,,9,,,,,,,,,,,,,,left,0.2579,,1,1,298.4191,0,8,8,8,1,stimuli/bead_y.PNG,stimuli/bead_b.PNG,stimuli/bead_b.PNG,stimuli/bead_g.PNG,stimuli/bead_b.PNG,0,1,left
,,,,2023-10-10_10h57.54.936,Fish_Game,2023.1.3,MacIntel,60.0024001,,,,,,,,,,,,,10,,,,,,,,,,,,,,left,0.3761,,1,0.5,299.8205,0,9,9,9,1,stimuli/bead_b.PNG,stimuli/bead_y.PNG,stimuli/bead_b.PNG,stimuli/bead_b.PNG,stimuli/bead_g.PNG,0,1,left
,,,,2023-10-10_10h57.54.936,Fish_Game,2023.1.3,MacIntel,60.0024001,,,,,,,,,,,,,11,,,,,,,,,,,,,,left,0.6927,,0,1.5,302.5414,0,10,10,10,1,stimuli/bead_g.PNG,stimuli/bead_b.PNG,stimuli/bead_y.PNG,stimuli/bead_b.PNG,stimuli/bead_b.PNG,2,3,right
,,,,2023-10-10_10h57.54.936,Fish_Game,2023.1.3,MacIntel,60.0024001,,,,,,,,,,,,,12,,,,,,,,,,,,,,left,0.4503,,0,0.5,304.0264,0,11,11,11,1,stimuli/bead_b.PNG,stimuli/bead_g.PNG,stimuli/bead_b.PNG,stimuli/bead_y.PNG,stimuli/bead_b.PNG,2,3,right
,,,,2023-10-10_10h57.54.936,Fish_Game,2023.1.3,MacIntel,60.0024001,,,,,,,,,,,,,13,,,,,,,,,,,,,,left,0.6908,,0,0.5,305.7432,0,12,12,12,1,stimuli/bead_g.PNG,stimuli/bead_b.PNG,stimuli/bead_g.PNG,stimuli/bead_b.PNG,stimuli/bead_y.PNG,2,3,right
,,,,2023-10-10_10h57.54.936,Fish_Game,2023.1.3,MacIntel,60.0024001,,,,,,,,,,,,,14,,,,,,,,,,,,,,left,0.3524,,0,1,307.6254,0,13,13,13,1,stimuli/bead_g.PNG,stimuli/bead_g.PNG,stimuli/bead_b.PNG,stimuli/bead_g.PNG,stimuli/bead_b.PNG,2,3,right
,,,,2023-10-10_10h57.54.936,Fish_Game,2023.1.3,MacIntel,60.0024001,,,,,,,,,,,,,15,,,,,,,,,,,,,,right,0.3072,,1,1.5,309.959,0,14,14,14,1,stimuli/bead_g.PNG,stimuli/bead_g.PNG,stimuli/bead_g.PNG,stimuli/bead_b.PNG,stimuli/bead_g.PNG,2,3,right
,,,,2023-10-10_10h57.54.936,Fish_Game,2023.1.3,MacIntel,60.0024001,,,,,,,,,,,,,1,,,,,,,,,,,,2,1condition/mainTrials2.xlsx,up,0.6482,,1,1,317.0831,0,0,0,0,1,stimuli/bead_y.PNG,stimuli/blank.jpg,stimuli/blank.jpg,stimuli/blank.jpg,stimuli/blank.jpg,1,2,up
,,,,2023-10-10_10h57.54.936,Fish_Game,2023.1.3,MacIntel,60.0024001,,,,,,,,,,,,,2,,,,,,,,,,,,,,up,0.7985,,1,0.5,318.8958,0,1,1,1,1,stimuli/bead_b.PNG,stimuli/bead_y.PNG,stimuli/blank.jpg,stimuli/blank.jpg,stimuli/blank.jpg,1,2,up
,,,,2023-10-10_10h57.54.936,Fish_Game,2023.1.3,MacIntel,60.0024001,,,,,,,,,,,,,3,,,,,,,,,,,,,,up,0.4909,,1,0.5,320.4139,0,2,2,2,1,stimuli/bead_y.PNG,stimuli/bead_b.PNG,stimuli/bead_y.PNG,stimuli/blank.jpg,stimuli/blank.jpg,1,2,up
,,,,2023-10-10_10h57.54.936,Fish_Game,2023.1.3,MacIntel,60.0024001,,,,,,,,,,,,,4,,,,,,,,,,,,,,up,0.4212,,1,0.5,321.8633,0,3,3,3,1,stimuli/bead_y.PNG,stimuli/bead_y.PNG,stimuli/bead_b.PNG,stimuli/bead_y.PNG,stimuli/blank.jpg,1,2,up
,,,,2023-10-10_10h57.54.936,Fish_Game,2023.1.3,MacIntel,60.0024001,,,,,,,,,,,,,5,,,,,,,,,,,,,,up,0.5999,,1,0.5,323.4869,0,4,4,4,1,stimuli/bead_g.PNG,stimuli/bead_y.PNG,stimuli/bead_y.PNG,stimuli/bead_b.PNG,stimuli/bead_y.PNG,1,2,up
,,,,2023-10-10_10h57.54.936,Fish_Game,2023.1.3,MacIntel,60.0024001,,,,,,,,,,,,,6,,,,,,,,,,,,,,up,0.3148,,1,0.5,324.8372,0,5,5,5,1,stimuli/bead_y.PNG,stimuli/bead_g.PNG,stimuli/bead_y.PNG,stimuli/bead_y.PNG,stimuli/bead_b.PNG,1,2,up
,,,,2023-10-10_10h57.54.936,Fish_Game,2023.1.3,MacIntel,60.0024001,,,,,,,,,,,,,7,,,,,,,,,,,,,,up,0.3499,,0,0.5,326.2202,0,6,6,6,1,stimuli/bead_b.PNG,stimuli/bead_y.PNG,stimuli/bead_g.PNG,stimuli/bead_y.PNG,stimuli/bead_y.PNG,0,1,left
,,,,2023-10-10_10h57.54.936,Fish_Game,2023.1.3,MacIntel,60.0024001,,,,,,,,,,,,,8,,,,,,,,,,,,,,left,0.5913,,1,0.5,327.8367,0,7,7,7,1,stimuli/bead_b.PNG,stimuli/bead_b.PNG,stimuli/bead_y.PNG,stimuli/bead_g.PNG,stimuli/bead_y.PNG,0,1,left
,,,,2023-10-10_10h57.54.936,Fish_Game,2023.1.3,MacIntel,60.0024001,,,,,,,,,,,,,9,,,,,,,,,,,,,,up,0.3722,,0,1.5,330.2381,0,8,8,8,1,stimuli/bead_y.PNG,stimuli/bead_b.PNG,stimuli/bead_b.PNG,stimuli/bead_y.PNG,stimuli/bead_g.PNG,0,1,left
,,,,2023-10-10_10h57.54.936,Fish_Game,2023.1.3,MacIntel,60.0024001,,,,,,,,,,,,,10,,,,,,,,,,,,,,left,0.4212,,1,1.5,332.6776,0,9,9,9,1,stimuli/bead_b.PNG,stimuli/bead_y.PNG,stimuli/bead_b.PNG,stimuli/bead_b.PNG,stimuli/bead_y.PNG,0,1,left
,,,,2023-10-10_10h57.54.936,Fish_Game,2023.1.3,MacIntel,60.0024001,,,,,,,,,,,,,11,,,,,,,,,,,,,,left,0.3924,,1,0.5,334.0932,0,10,10,10,1,stimuli/bead_b.PNG,stimuli/bead_b.PNG,stimuli/bead_y.PNG,stimuli/bead_b.PNG,stimuli/bead_b.PNG,0,1,left
,,,,2023-10-10_10h57.54.936,Fish_Game,2023.1.3,MacIntel,60.0024001,,,,,,,,,,,,,12,,,,,,,,,,,,,,left,0.3199,,1,1.5,336.4434,0,11,11,11,1,stimuli/bead_b.PNG,stimuli/bead_b.PNG,stimuli/bead_b.PNG,stimuli/bead_y.PNG,stimuli/bead_b.PNG,0,1,left
,,,,2023-10-10_10h57.54.936,Fish_Game,2023.1.3,MacIntel,60.0024001,,,,,,,,,,,,,13,,,,,,,,,,,,,,left,0.5888,,1,1,338.5587,0,12,12,12,1,stimuli/bead_g.PNG,stimuli/bead_b.PNG,stimuli/bead_b.PNG,stimuli/bead_b.PNG,stimuli/bead_y.PNG,0,1,left
,,,,2023-10-10_10h57.54.936,Fish_Game,2023.1.3,MacIntel,60.0024001,,,,,,,,,,,,,14,,,,,,,,,,,,,,left,0.3924,,1,1.5,340.9758,0,13,13,13,1,stimuli/bead_b.PNG,stimuli/bead_g.PNG,stimuli/bead_b.PNG,stimuli/bead_b.PNG,stimuli/bead_b.PNG,0,1,left
,,,,2023-10-10_10h57.54.936,Fish_Game,2023.1.3,MacIntel,60.0024001,,,,,,,,,,,,,15,,,,,,,,,,,,,,left,0.3684,,1,1,342.8817,0,14,14,14,1,stimuli/bead_b.PNG,stimuli/bead_b.PNG,stimuli/bead_g.PNG,stimuli/bead_b.PNG,stimuli/bead_b.PNG,0,1,left
,,,,2023-10-10_10h57.54.936,Fish_Game,2023.1.3,MacIntel,60.0024001,,,,,,,,,,,,,1,,,,,,,,,,,,3,1condition/mainTrials8.xlsx,up,0.6162,,0,1.5,350.5323,0,0,0,0,1,stimuli/bead_y.PNG,stimuli/blank.jpg,stimuli/blank.jpg,stimuli/blank.jpg,stimuli/blank.jpg,0,1,left
,,,,2023-10-10_10h57.54.936,Fish_Game,2023.1.3,MacIntel,60.0024001,,,,,,,,,,,,,2,,,,,,,,,,,,,,up,0.6545,,0,1.5,353.2027,0,1,1,1,1,stimuli/bead_b.PNG,stimuli/bead_y.PNG,stimuli/blank.jpg,stimuli/blank.jpg,stimuli/blank.jpg,0,1,left
,,,,2023-10-10_10h57.54.936,Fish_Game,2023.1.3,MacIntel,60.0024001,,,,,,,,,,,,,3,,,,,,,,,,,,,,right,1.2525,,0,1,355.988,0,2,2,2,1,stimuli/bead_g.PNG,stimuli/bead_b.PNG,stimuli/bead_y.PNG,stimuli/blank.jpg,stimuli/blank.jpg,0,1,left
,,,,2023-10-10_10h57.54.936,Fish_Game,2023.1.3,MacIntel,60.0024001,,,,,,,,,,,,,4,,,,,,,,,,,,,,left,0.7064,,1,1,358.2196,0,3,3,3,1,stimuli/bead_b.PNG,stimuli/bead_g.PNG,stimuli/bead_b.PNG,stimuli/bead_y.PNG,stimuli/blank.jpg,0,1,left
,,,,2023-10-10_10h57.54.936,Fish_Game,2023.1.3,MacIntel,60.0024001,,,,,,,,,,,,,5,,,,,,,,,,,,,,left,0.4145,,1,0.5,359.6726,0,4,4,4,1,stimuli/bead_b.PNG,stimuli/bead_b.PNG,stimuli/bead_g.PNG,stimuli/bead_b.PNG,stimuli/bead_y.PNG,0,1,left
,,,,2023-10-10_10h57.54.936,Fish_Game,2023.1.3,MacIntel,60.0024001,,,,,,,,,,,,,6,,,,,,,,,,,,,,left,0.4063,,1,0.5,361.102,0,5,5,5,1,stimuli/bead_b.PNG,stimuli/bead_b.PNG,stimuli/bead_b.PNG,stimuli/bead_g.PNG,stimuli/bead_b.PNG,0,1,left
,,,,2023-10-10_10h57.54.936,Fish_Game,2023.1.3,MacIntel,60.0024001,,,,,,,,,,,,,7,,,,,,,,,,,,,,left,0.4418,,1,0.5,362.5767,0,6,6,6,1,stimuli/bead_g.PNG,stimuli/bead_b.PNG,stimuli/bead_b.PNG,stimuli/bead_b.PNG,stimuli/bead_g.PNG,0,1,left
,,,,2023-10-10_10h57.54.936,Fish_Game,2023.1.3,MacIntel,60.0024001,,,,,,,,,,,,,8,,,,,,,,,,,,,,left,0.3529,,1,1.5,364.9579,0,7,7,7,1,stimuli/bead_b.PNG,stimuli/bead_g.PNG,stimuli/bead_b.PNG,stimuli/bead_b.PNG,stimuli/bead_b.PNG,0,1,left
,,,,2023-10-10_10h57.54.936,Fish_Game,2023.1.3,MacIntel,60.0024001,,,,,,,,,,,,,9,,,,,,,,,,,,,,left,0.4758,,1,0.5,366.4593,0,8,8,8,1,stimuli/bead_y.PNG,stimuli/bead_b.PNG,stimuli/bead_g.PNG,stimuli/bead_b.PNG,stimuli/bead_b.PNG,0,1,left
,,,,2023-10-10_10h57.54.936,Fish_Game,2023.1.3,MacIntel,60.0024001,,,,,,,,,,,,,10,,,,,,,,,,,,,,left,0.402,,1,1,368.3929,0,9,9,9,1,stimuli/bead_b.PNG,stimuli/bead_y.PNG,stimuli/bead_b.PNG,stimuli/bead_g.PNG,stimuli/bead_b.PNG,0,1,left
,,,,2023-10-10_10h57.54.936,Fish_Game,2023.1.3,MacIntel,60.0024001,,,,,,,,,,,,,11,,,,,,,,,,,,,,left,0.3938,,1,1,370.3096,0,10,10,10,1,stimuli/bead_b.PNG,stimuli/bead_b.PNG,stimuli/bead_y.PNG,stimuli/bead_b.PNG,stimuli/bead_g.PNG,0,1,left
,,,,2023-10-10_10h57.54.936,Fish_Game,2023.1.3,MacIntel,60.0024001,,,,,,,,,,,,,12,,,,,,,,,,,,,,left,0.5321,,0,1,372.3757,0,11,11,11,1,stimuli/bead_y.PNG,stimuli/bead_b.PNG,stimuli/bead_b.PNG,stimuli/bead_y.PNG,stimuli/bead_b.PNG,1,2,up
,,,,2023-10-10_10h57.54.936,Fish_Game,2023.1.3,MacIntel,60.0024001,,,,,,,,,,,,,13,,,,,,,,,,,,,,up,0.6876,,1,0.5,374.098,0,12,12,12,1,stimuli/bead_y.PNG,stimuli/bead_y.PNG,stimuli/bead_b.PNG,stimuli/bead_b.PNG,stimuli/bead_y.PNG,1,2,up
,,,,2023-10-10_10h57.54.936,Fish_Game,2023.1.3,MacIntel,60.0024001,,,,,,,,,,,,,14,,,,,,,,,,,,,,up,0.3891,,1,0.5,375.5166,0,13,13,13,1,stimuli/bead_y.PNG,stimuli/bead_y.PNG,stimuli/bead_y.PNG,stimuli/bead_b.PNG,stimuli/bead_b.PNG,1,2,up
,,,,2023-10-10_10h57.54.936,Fish_Game,2023.1.3,MacIntel,60.0024001,,,,,,,,,,,,,15,,,,,,,,,,,,,,up,0.6197,,1,1.5,378.1631,0,14,14,14,1,stimuli/bead_g.PNG,stimuli/bead_y.PNG,stimuli/bead_y.PNG,stimuli/bead_y.PNG,stimuli/bead_b.PNG,1,2,up
,,,,2023-10-10_10h57.54.936,Fish_Game,2023.1.3,MacIntel,60.0024001,,,,,,,,,,,,,1,,,,,,,,,,,,4,1condition/mainTrials3.xlsx,up,0.4699,,1,1.5,385.6546,0,0,0,0,1,stimuli/bead_y.PNG,stimuli/blank.jpg,stimuli/blank.jpg,stimuli/blank.jpg,stimuli/blank.jpg,1,2,up
,,,,2023-10-10_10h57.54.936,Fish_Game,2023.1.3,MacIntel,60.0024001,,,,,,,,,,,,,2,,,,,,,,,,,,,,up,0.4665,,1,0.5,387.1562,0,1,1,1,1,stimuli/bead_y.PNG,stimuli/bead_y.PNG,stimuli/blank.jpg,stimuli/blank.jpg,stimuli/blank.jpg,1,2,up
,,,,2023-10-10_10h57.54.936,Fish_Game,2023.1.3,MacIntel,60.0024001,,,,,,,,,,,,,3,,,,,,,,,,,,,,up,0.5263,,1,1,389.2032,0,2,2,2,1,stimuli/bead_b.PNG,stimuli/bead_y.PNG,stimuli/bead_y.PNG,stimuli/blank.jpg,stimuli/blank.jpg,1,2,up
,,,,2023-10-10_10h57.54.936,Fish_Game,2023.1.3,MacIntel,60.0024001,,,,,,,,,,,,,4,,,,,,,,,,,,,,up,0.574,,1,0.5,390.7862,0,3,3,3,1,stimuli/bead_y.PNG,stimuli/bead_b.PNG,stimuli/bead_y.PNG,stimuli/bead_y.PNG,stimuli/blank.jpg,1,2,up
,,,,2023-10-10_10h57.54.936,Fish_Game,2023.1.3,MacIntel,60.0024001,,,,,,,,,,,,,5,,,,,,,,,,,,,,up,0.6443,,1,0.5,392.4542,0,4,4,4,1,stimuli/bead_y.PNG,stimuli/bead_y.PNG,stimuli/bead_b.PNG,stimuli/bead_y.PNG,stimuli/bead_y.PNG,1,2,up
,,,,2023-10-10_10h57.54.936,Fish_Game,2023.1.3,MacIntel,60.0024001,,,,,,,,,,,,,6,,,,,,,,,,,,,,up,0.52,,1,1,394.4935,0,5,5,5,1,stimuli/bead_y.PNG,stimuli/bead_y.PNG,stimuli/bead_y.PNG,stimuli/bead_b.PNG,stimuli/bead_y.PNG,1,2,up
,,,,2023-10-10_10h57.54.936,Fish_Game,2023.1.3,MacIntel,60.0024001,,,,,,,,,,,,,7,,,,,,,,,,,,,,left,0.9643,,0,0.5,396.4937,0,6,6,6,1,stimuli/bead_b.PNG,stimuli/bead_y.PNG,stimuli/bead_y.PNG,stimuli/bead_y.PNG,stimuli/bead_b.PNG,1,2,up
,,,,2023-10-10_10h57.54.936,Fish_Game,2023.1.3,MacIntel,60.0024001,,,,,,,,,,,,,8,,,,,,,,,,,,,,up,0.476,,1,1.5,398.9758,0,7,7,7,1,stimuli/bead_y.PNG,stimuli/bead_b.PNG,stimuli/bead_y.PNG,stimuli/bead_y.PNG,stimuli/bead_y.PNG,1,2,up
,,,,2023-10-10_10h57.54.936,Fish_Game,2023.1.3,MacIntel,60.0024001,,,,,,,,,,,,,9,,,,,,,,,,,,,,up,0.5637,,1,1,401.06,0,8,8,8,1,stimuli/bead_y.PNG,stimuli/bead_y.PNG,stimuli/bead_b.PNG,stimuli/bead_y.PNG,stimuli/bead_y.PNG,1,2,up
,,,,2023-10-10_10h57.54.936,Fish_Game,2023.1.3,MacIntel,60.0024001,,,,,,,,,,,,,10,,,,,,,,,,,,,,up,0.7212,,1,0.5,402.8149,0,9,9,9,1,stimuli/bead_g.PNG,stimuli/bead_y.PNG,stimuli/bead_y.PNG,stimuli/bead_b.PNG,stimuli/bead_y.PNG,1,2,up
,,,,2023-10-10_10h57.54.936,Fish_Game,2023.1.3,MacIntel,60.0024001,,,,,,,,,,,,,11,,,,,,,,,,,,,,up,0.6407,,1,1.5,405.4651,0,10,10,10,1,stimuli/bead_y.PNG,stimuli/bead_g.PNG,stimuli/bead_y.PNG,stimuli/bead_y.PNG,stimuli/bead_b.PNG,1,2,up
,,,,2023-10-10_10h57.54.936,Fish_Game,2023.1.3,MacIntel,60.0024001,,,,,,,,,,,,,12,,,,,,,,,,,,,,up,0.989,,1,1,407.982,0,11,11,11,1,stimuli/bead_g.PNG,stimuli/bead_y.PNG,stimuli/bead_g.PNG,stimuli/bead_y.PNG,stimuli/bead_y.PNG,1,2,up
,,,,2023-10-10_10h57.54.936,Fish_Game,2023.1.3,MacIntel,60.0024001,,,,,,,,,,,,,13,,,,,,,,,,,,,,up,0.5889,,1,0.5,409.599,0,12,12,12,1,stimuli/bead_y.PNG,stimuli/bead_g.PNG,stimuli/bead_y.PNG,stimuli/bead_g.PNG,stimuli/bead_y.PNG,1,2,up
,,,,2023-10-10_10h57.54.936,Fish_Game,2023.1.3,MacIntel,60.0024001,,,,,,,,,,,,,14,,,,,,,,,,,,,,up,0.5262,,1,1,411.6477,0,13,13,13,1,stimuli/bead_y.PNG,stimuli/bead_y.PNG,stimuli/bead_g.PNG,stimuli/bead_y.PNG,stimuli/bead_g.PNG,1,2,up
,,,,2023-10-10_10h57.54.936,Fish_Game,2023.1.3,MacIntel,60.0024001,,,,,,,,,,,,,15,,,,,,,,,,,,,,up,0.425,,1,1.5,414.0868,0,14,14,14,1,stimuli/bead_y.PNG,stimuli/bead_y.PNG,stimuli/bead_y.PNG,stimuli/bead_g.PNG,stimuli/bead_y.PNG,1,2,up
,,,,2023-10-10_10h57.54.936,Fish_Game,2023.1.3,MacIntel,60.0024001,,,,,,,,,,,,,1,,,,,,,,,,,,5,1condition/mainTrials1.xlsx,right,0.5737,,1,1.5,421.6874,0,0,0,0,1,stimuli/bead_g.PNG,stimuli/blank.jpg,stimuli/blank.jpg,stimuli/blank.jpg,stimuli/blank.jpg,2,3,right
,,,,2023-10-10_10h57.54.936,Fish_Game,2023.1.3,MacIntel,60.0024001,,,,,,,,,,,,,2,,,,,,,,,,,,,,up,0.841,,0,1.5,424.5426,0,1,1,1,1,stimuli/bead_y.PNG,stimuli/bead_g.PNG,stimuli/blank.jpg,stimuli/blank.jpg,stimuli/blank.jpg,2,3,right
,,,,2023-10-10_10h57.54.936,Fish_Game,2023.1.3,MacIntel,60.0024001,,,,,,,,,,,,,3,,,,,,,,,,,,,,right,0.5724,,1,0.5,426.1439,0,2,2,2,1,stimuli/bead_g.PNG,stimuli/bead_y.PNG,stimuli/bead_g.PNG,stimuli/blank.jpg,stimuli/blank.jpg,2,3,right
,,,,2023-10-10_10h57.54.936,Fish_Game,2023.1.3,MacIntel,60.0024001,,,,,,,,,,,,,4,,,,,,,,,,,,,,right,0.9731,,1,1.5,429.1439,0,3,3,3,1,stimuli/bead_b.PNG,stimuli/bead_g.PNG,stimuli/bead_y.PNG,stimuli/bead_g.PNG,stimuli/blank.jpg,2,3,right
,,,,2023-10-10_10h57.54.936,Fish_Game,2023.1.3,MacIntel,60.0024001,,,,,,,,,,,,,5,,,,,,,,,,,,,,right,0.3899,,1,1,431.0594,0,4,4,4,1,stimuli/bead_g.PNG,stimuli/bead_b.PNG,stimuli/bead_g.PNG,stimuli/bead_y.PNG,stimuli/bead_g.PNG,2,3,right
,,,,2023-10-10_10h57.54.936,Fish_Game,2023.1.3,MacIntel,60.0024001,,,,,,,,,,,,,6,,,,,,,,,,,,,,right,0.4594,,1,0.5,432.5434,0,5,5,5,1,stimuli/bead_g.PNG,stimuli/bead_g.PNG,stimuli/bead_b.PNG,stimuli/bead_g.PNG,stimuli/bead_y.PNG,2,3,right
,,,,2023-10-10_10h57.54.936,Fish_Game,2023.1.3,MacIntel,60.0024001,,,,,,,,,,,,,7,,,,,,,,,,,,,,right,0.7839,,1,1,434.8487,0,6,6,6,1,stimuli/bead_g.PNG,stimuli/bead_g.PNG,stimuli/bead_g.PNG,stimuli/bead_b.PNG,stimuli/bead_g.PNG,2,3,right
,,,,2023-10-10_10h57.54.936,Fish_Game,2023.1.3,MacIntel,60.0024001,,,,,,,,,,,,,8,,,,,,,,,,,,,,right,0.4259,,1,1,436.7965,0,7,7,7,1,stimuli/bead_g.PNG,stimuli/bead_g.PNG,stimuli/bead_g.PNG,stimuli/bead_g.PNG,stimuli/bead_b.PNG,2,3,right
,,,,2023-10-10_10h57.54.936,Fish_Game,2023.1.3,MacIntel,60.0024001,,,,,,,,,,,,,9,,,,,,,,,,,,,,right,0.472,,1,1,438.7827,0,8,8,8,1,stimuli/bead_b.PNG,stimuli/bead_g.PNG,stimuli/bead_g.PNG,stimuli/bead_g.PNG,stimuli/bead_g.PNG,2,3,right
,,,,2023-10-10_10h57.54.936,Fish_Game,2023.1.3,MacIntel,60.0024001,,,,,,,,,,,,,10,,,,,,,,,,,,,,right,0.4461,,1,1,440.7498,0,9,9,9,1,stimuli/bead_g.PNG,stimuli/bead_b.PNG,stimuli/bead_g.PNG,stimuli/bead_g.PNG,stimuli/bead_g.PNG,2,3,right
,,,,2023-10-10_10h57.54.936,Fish_Game,2023.1.3,MacIntel,60.0024001,,,,,,,,,,,,,11,,,,,,,,,,,,,,right,0.3855,,1,0.5,442.1667,0,10,10,10,1,stimuli/bead_g.PNG,stimuli/bead_g.PNG,stimuli/bead_b.PNG,stimuli/bead_g.PNG,stimuli/bead_g.PNG,2,3,right
,,,,2023-10-10_10h57.54.936,Fish_Game,2023.1.3,MacIntel,60.0024001,,,,,,,,,,,,,12,,,,,,,,,,,,,,right,0.403,,1,1,444.0878,0,11,11,11,1,stimuli/bead_g.PNG,stimuli/bead_g.PNG,stimuli/bead_g.PNG,stimuli/bead_b.PNG,stimuli/bead_g.PNG,2,3,right
,,,,2023-10-10_10h57.54.936,Fish_Game,2023.1.3,MacIntel,60.0024001,,,,,,,,,,,,,13,,,,,,,,,,,,,,right,0.4193,,0,1.5,446.5387,0,12,12,12,1,stimuli/bead_b.PNG,stimuli/bead_g.PNG,stimuli/bead_g.PNG,stimuli/bead_g.PNG,stimuli/bead_b.PNG,0,1,left
,,,,2023-10-10_10h57.54.936,Fish_Game,2023.1.3,MacIntel,60.0024001,,,,,,,,,,,,,14,,,,,,,,,,,,,,left,0.8385,,1,0.5,448.406,0,13,13,13,1,stimuli/bead_b.PNG,stimuli/bead_b.PNG,stimuli/bead_g.PNG,stimuli/bead_g.PNG,stimuli/bead_g.PNG,0,1,left
,,,,2023-10-10_10h57.54.936,Fish_Game,2023.1.3,MacIntel,60.0024001,,,,,,,,,,,,,15,,,,,,,,,,,,,,left,0.3556,,1,0.5,449.769,0,14,14,14,1,stimuli/bead_b.PNG,stimuli/bead_b.PNG,stimuli/bead_b.PNG,stimuli/bead_g.PNG,stimuli/bead_g.PNG,0,1,left
,,,,2023-10-10_10h57.54.936,Fish_Game,2023.1.3,MacIntel,60.0024001,,,,,,,,,,,,,1,,,,,,,,,,,,6,1condition/mainTrials4.xlsx,right,0.7739,,1,1,457.077,0,0,0,0,1,stimuli/bead_g.PNG,stimuli/blank.jpg,stimuli/blank.jpg,stimuli/blank.jpg,stimuli/blank.jpg,2,3,right
,,,,2023-10-10_10h57.54.936,Fish_Game,2023.1.3,MacIntel,60.0024001,,,,,,,,,,,,,2,,,,,,,,,,,,,,right,0.6052,,1,1.5,459.7108,0,1,1,1,1,stimuli/bead_g.PNG,stimuli/bead_g.PNG,stimuli/blank.jpg,stimuli/blank.jpg,stimuli/blank.jpg,2,3,right
,,,,2023-10-10_10h57.54.936,Fish_Game,2023.1.3,MacIntel,60.0024001,,,,,,,,,,,,,3,,,,,,,,,,,,,,right,0.5604,,1,1.5,462.2925,0,2,2,2,1,stimuli/bead_b.PNG,stimuli/bead_g.PNG,stimuli/bead_g.PNG,stimuli/blank.jpg,stimuli/blank.jpg,2,3,right
,,,,2023-10-10_10h57.54.936,Fish_Game,2023.1.3,MacIntel,60.0024001,,,,,,,,,,,,,4,,,,,,,,,,,,,,right,0.5866,,1,1,464.3843,0,3,3,3,1,stimuli/bead_g.PNG,stimuli/bead_b.PNG,stimuli/bead_g.PNG,stimuli/bead_g.PNG,stimuli/blank.jpg,2,3,right
,,,,2023-10-10_10h57.54.936,Fish_Game,2023.1.3,MacIntel,60.0024001,,,,,,,,,,,,,5,,,,,,,,,,,,,,right,0.4752,,1,1.5,466.8663,0,4,4,4,1,stimuli/bead_g.PNG,stimuli/bead_g.PNG,stimuli/bead_b.PNG,stimuli/bead_g.PNG,stimuli/bead_g.PNG,2,3,right
,,,,2023-10-10_10h57.54.936,Fish_Game,2023.1.3,MacIntel,60.0024001,,,,,,,,,,,,,6,,,,,,,,,,,,,,right,0.5875,,1,1,468.9841,0,5,5,5,1,stimuli/bead_y.PNG,stimuli/bead_g.PNG,stimuli/bead_g.PNG,stimuli/bead_b.PNG,stimuli/bead_g.PNG,2,3,right
,,,,2023-10-10_10h57.54.936,Fish_Game,2023.1.3,MacIntel,60.0024001,,,,,,,,,,,,,7,,,,,,,,,,,,,,right,0.5116,,1,1,471.0157,0,6,6,6,1,stimuli/bead_g.PNG,stimuli/bead_y.PNG,stimuli/bead_g.PNG,stimuli/bead_g.PNG,stimuli/bead_b.PNG,2,3,right
,,,,2023-10-10_10h57.54.936,Fish_Game,2023.1.3,MacIntel,60.0024001,,,,,,,,,,,,,8,,,,,,,,,,,,,,right,0.7382,,0,0.5,472.7909,0,7,7,7,1,stimuli/bead_y.PNG,stimuli/bead_g.PNG,stimuli/bead_y.PNG,stimuli/bead_g.PNG,stimuli/bead_g.PNG,1,2,up
,,,,2023-10-10_10h57.54.936,Fish_Game,2023.1.3,MacIntel,60.0024001,,,,,,,,,,,,,9,,,,,,,,,,,,,,up,0.8003,,1,1.5,475.6198,0,8,8,8,1,stimuli/bead_y.PNG,stimuli/bead_y.PNG,stimuli/bead_g.PNG,stimuli/bead_y.PNG,stimuli/bead_g.PNG,1,2,up
,,,,2023-10-10_10h57.54.936,Fish_Game,2023.1.3,MacIntel,60.0024001,,,,,,,,,,,,,10,,,,,,,,,,,,,,up,0.8863,,1,1.5,478.5375,0,9,9,9,1,stimuli/bead_g.PNG,stimuli/bead_y.PNG,stimuli/bead_y.PNG,stimuli/bead_g.PNG,stimuli/bead_y.PNG,1,2,up
,,,,2023-10-10_10h57.54.936,Fish_Game,2023.1.3,MacIntel,60.0024001,,,,,,,,,,,,,11,,,,,,,,,,,,,,up,0.4904,,1,0.5,480.0521,0,10,10,10,1,stimuli/bead_y.PNG,stimuli/bead_g.PNG,stimuli/bead_y.PNG,stimuli/bead_y.PNG,stimuli/bead_g.PNG,1,2,up
,,,,2023-10-10_10h57.54.936,Fish_Game,2023.1.3,MacIntel,60.0024001,,,,,,,,,,,,,12,,,,,,,,,,,,,,up,0.4186,,1,1.5,482.4856,0,11,11,11,1,stimuli/bead_y.PNG,stimuli/bead_y.PNG,stimuli/bead_g.PNG,stimuli/bead_y.PNG,stimuli/bead_y.PNG,1,2,up
,,,,2023-10-10_10h57.54.936,Fish_Game,2023.1.3,MacIntel,60.0024001,,,,,,,,,,,,,13,,,,,,,,,,,,,,up,0.6197,,1,1.5,485.1284,0,12,12,12,1,stimuli/bead_b.PNG,stimuli/bead_y.PNG,stimuli/bead_y.PNG,stimuli/bead_g.PNG,stimuli/bead_y.PNG,1,2,up
,,,,2023-10-10_10h57.54.936,Fish_Game,2023.1.3,MacIntel,60.0024001,,,,,,,,,,,,,14,,,,,,,,,,,,,,up,0.5742,,1,1,487.227,0,13,13,13,1,stimuli/bead_y.PNG,stimuli/bead_b.PNG,stimuli/bead_y.PNG,stimuli/bead_y.PNG,stimuli/bead_g.PNG,1,2,up
,,,,2023-10-10_10h57.54.936,Fish_Game,2023.1.3,MacIntel,60.0024001,,,,,,,,,,,,,15,,,,,,,,,,,,,,up,0.6055,,1,1,489.3547,0,14,14,14,1,stimuli/bead_y.PNG,stimuli/bead_y.PNG,stimuli/bead_b.PNG,stimuli/bead_y.PNG,stimuli/bead_y.PNG,1,2,up
,,,,2023-10-10_10h57.54.936,Fish_Game,2023.1.3,MacIntel,60.0024001,,,,,,,,,,,,,1,,,,,,,,,,,,7,1condition/mainTrials5.xlsx,left,0.5231,,1,1.5,496.8836,0,0,0,0,1,stimuli/bead_b.PNG,stimuli/blank.jpg,stimuli/blank.jpg,stimuli/blank.jpg,stimuli/blank.jpg,0,1,left
,,,,2023-10-10_10h57.54.936,Fish_Game,2023.1.3,MacIntel,60.0024001,,,,,,,,,,,,,2,,,,,,,,,,,,,,left,0.475,,1,0.5,498.3659,0,1,1,1,1,stimuli/bead_b.PNG,stimuli/bead_b.PNG,stimuli/blank.jpg,stimuli/blank.jpg,stimuli/blank.jpg,0,1,left
,,,,2023-10-10_10h57.54.936,Fish_Game,2023.1.3,MacIntel,60.0024001,,,,,,,,,,,,,3,,,,,,,,,,,,,,left,0.5248,,1,0.5,499.9148,0,2,2,2,1,stimuli/bead_y.PNG,stimuli/bead_b.PNG,stimuli/bead_b.PNG,stimuli/blank.jpg,stimuli/blank.jpg,0,1,left
,,,,2023-10-10_10h57.54.936,Fish_Game,2023.1.3,MacIntel,60.0024001,,,,,,,,,,,,,4,,,,,,,,,,,,,,left,0.3809,,1,1,501.8323,0,3,3,3,1,stimuli/bead_b.PNG,stimuli/bead_y.PNG,stimuli/bead_b.PNG,stimuli/bead_b.PNG,stimuli/blank.jpg,0,1,left
,,,,2023-10-10_10h57.54.936,Fish_Game,2023.1.3,MacIntel,60.0024001,,,,,,,,,,,,,5,,,,,,,,,,,,,,left,0.3549,,1,1,503.7035,0,4,4,4,1,stimuli/bead_b.PNG,stimuli/bead_b.PNG,stimuli/bead_y.PNG,stimuli/bead_b.PNG,stimuli/bead_b.PNG,0,1,left
,,,,2023-10-10_10h57.54.936,Fish_Game,2023.1.3,MacIntel,60.0024001,,,,,,,,,,,,,6,,,,,,,,,,,,,,right,0.8227,,1,1.5,506.537,0,5,5,5,1,stimuli/bead_g.PNG,stimuli/bead_b.PNG,stimuli/bead_b.PNG,stimuli/bead_y.PNG,stimuli/bead_b.PNG,2,3,right
,,,,2023-10-10_10h57.54.936,Fish_Game,2023.1.3,MacIntel,60.0024001,,,,,,,,,,,,,7,,,,,,,,,,,,,,right,0.4132,,1,1,508.4729,0,6,6,6,1,stimuli/bead_g.PNG,stimuli/bead_g.PNG,stimuli/bead_b.PNG,stimuli/bead_b.PNG,stimuli/bead_y.PNG,2,2,right
,,,,2023-10-10_10h57.54.936,Fish_Game,2023.1.3,MacIntel,60.0024001,,,,,,,,,,,,,8,,,,,,,,,,,,,,right,0.6083,,1,0.5,510.1046,0,7,7,7,1,stimuli/bead_b.PNG,stimuli/bead_g.PNG,stimuli/bead_g.PNG,stimuli/bead_b.PNG,stimuli/bead_b.PNG,2,2,right
,,,,2023-10-10_10h57.54.936,Fish_Game,2023.1.3,MacIntel,60.0024001,,,,,,,,,,,,,9,,,,,,,,,,,,,,right,0.3538,,1,0.5,511.4901,0,8,8,8,1,stimuli/bead_g.PNG,stimuli/bead_b.PNG,stimuli/bead_g.PNG,stimuli/bead_g.PNG,stimuli/bead_b.PNG,2,2,right
,,,,2023-10-10_10h57.54.936,Fish_Game,2023.1.3,MacIntel,60.0024001,,,,,,,,,,,,,10,,,,,,,,,,,,,,right,0.4195,,1,1.5,513.9267,0,9,9,9,1,stimuli/bead_b.PNG,stimuli/bead_g.PNG,stimuli/bead_b.PNG,stimuli/bead_g.PNG,stimuli/bead_g.PNG,2,2,right
,,,,2023-10-10_10h57.54.936,Fish_Game,2023.1.3,MacIntel,60.0024001,,,,,,,,,,,,,11,,,,,,,,,,,,,,right,0.4348,,1,1.5,516.3939,0,10,10,10,1,stimuli/bead_g.PNG,stimuli/bead_b.PNG,stimuli/bead_g.PNG,stimuli/bead_b.PNG,stimuli/bead_g.PNG,2,2,right
,,,,2023-10-10_10h57.54.936,Fish_Game,2023.1.3,MacIntel,60.0024001,,,,,,,,,,,,,12,,,,,,,,,,,,,,right,0.3589,,1,1.5,518.7755,0,11,11,11,1,stimuli/bead_g.PNG,stimuli/bead_g.PNG,stimuli/bead_b.PNG,stimuli/bead_g.PNG,stimuli/bead_b.PNG,2,2,right
,,,,2023-10-10_10h57.54.936,Fish_Game,2023.1.3,MacIntel,60.0024001,,,,,,,,,,,,,13,,,,,,,,,,,,,,right,0.5217,,1,0.5,520.3274,0,12,12,12,1,stimuli/bead_g.PNG,stimuli/bead_g.PNG,stimuli/bead_g.PNG,stimuli/bead_b.PNG,stimuli/bead_g.PNG,2,3,right
,,,,2023-10-10_10h57.54.936,Fish_Game,2023.1.3,MacIntel,60.0024001,,,,,,,,,,,,,14,,,,,,,,,,,,,,right,0.5922,,1,0.5,521.9438,0,13,13,13,1,stimuli/bead_y.PNG,stimuli/bead_g.PNG,stimuli/bead_g.PNG,stimuli/bead_g.PNG,stimuli/bead_b.PNG,2,3,right
,,,,2023-10-10_10h57.54.936,Fish_Game,2023.1.3,MacIntel,60.0024001,,,,,,,,,,,,,15,,,,,,,,,,,,,,right,0.3915,,1,0.5,523.348,0,14,14,14,1,stimuli/bead_g.PNG,stimuli/bead_y.PNG,stimuli/bead_g.PNG,stimuli/bead_g.PNG,stimuli/bead_g.PNG,2,3,right
,,,,2023-10-10_10h57.54.936,Fish_Game,2023.1.3,MacIntel,60.0024001,,,,,,,,,,,,,1,,,,,,,,,,,,8,1condition/mainTrials7.xlsx,up,0.6265,,1,1,530.4978,0,0,0,0,1,stimuli/bead_y.PNG,stimuli/blank.jpg,stimuli/blank.jpg,stimuli/blank.jpg,stimuli/blank.jpg,1,2,up
,,,,2023-10-10_10h57.54.936,Fish_Game,2023.1.3,MacIntel,60.0024001,,,,,,,,,,,,,2,,,,,,,,,,,,,,up,0.3896,,1,0.5,531.9174,0,1,1,1,1,stimuli/bead_y.PNG,stimuli/bead_y.PNG,stimuli/blank.jpg,stimuli/blank.jpg,stimuli/blank.jpg,1,2,up
,,,,2023-10-10_10h57.54.936,Fish_Game,2023.1.3,MacIntel,60.0024001,,,,,,,,,,,,,3,,,,,,,,,,,,,,up,0.6178,,1,1.5,534.5546,0,2,2,2,1,stimuli/bead_g.PNG,stimuli/bead_y.PNG,stimuli/bead_y.PNG,stimuli/blank.jpg,stimuli/blank.jpg,1,2,up
,,,,2023-10-10_10h57.54.936,Fish_Game,2023.1.3,MacIntel,60.0024001,,,,,,,,,,,,,4,,,,,,,,,,,,,,up,0.4195,,1,1.5,537.0063,0,3,3,3,1,stimuli/bead_y.PNG,stimuli/bead_g.PNG,stimuli/bead_y.PNG,stimuli/bead_y.PNG,stimuli/blank.jpg,1,2,up
,,,,2023-10-10_10h57.54.936,Fish_Game,2023.1.3,MacIntel,60.0024001,,,,,,,,,,,,,5,,,,,,,,,,,,,,up,0.379,,1,1,538.9218,0,4,4,4,1,stimuli/bead_y.PNG,stimuli/bead_y.PNG,stimuli/bead_g.PNG,stimuli/bead_y.PNG,stimuli/bead_y.PNG,1,2,up
,,,,2023-10-10_10h57.54.936,Fish_Game,2023.1.3,MacIntel,60.0024001,,,,,,,,,,,,,6,,,,,,,,,,,,,,up,0.3371,,1,1,540.788,0,5,5,5,1,stimuli/bead_y.PNG,stimuli/bead_y.PNG,stimuli/bead_y.PNG,stimuli/bead_g.PNG,stimuli/bead_y.PNG,1,2,up
,,,,2023-10-10_10h57.54.936,Fish_Game,2023.1.3,MacIntel,60.0024001,,,,,,,,,,,,,7,,,,,,,,,,,,,,up,0.7045,,1,0.5,542.5043,0,6,6,6,1,stimuli/bead_b.PNG,stimuli/bead_y.PNG,stimuli/bead_y.PNG,stimuli/bead_y.PNG,stimuli/bead_g.PNG,1,2,up
,,,,2023-10-10_10h57.54.936,Fish_Game,2023.1.3,MacIntel,60.0024001,,,,,,,,,,,,,8,,,,,,,,,,,,,,up,0.4557,,1,1.5,544.9766,0,7,7,7,1,stimuli/bead_y.PNG,stimuli/bead_b.PNG,stimuli/bead_y.PNG,stimuli/bead_y.PNG,stimuli/bead_y.PNG,1,2,up
,,,,2023-10-10_10h57.54.936,Fish_Game,2023.1.3,MacIntel,60.0024001,,,,,,,,,,,,,9,,,,,,,,,,,,,,up,0.4011,,0,0.5,546.4104,0,8,8,8,1,stimuli/bead_y.PNG,stimuli/bead_y.PNG,stimuli/bead_b.PNG,stimuli/bead_y.PNG,stimuli/bead_y.PNG,1,2,right
,,,,2023-10-10_10h57.54.936,Fish_Game,2023.1.3,MacIntel,60.0024001,,,,,,,,,,,,,10,,,,,,,,,,,,,,up,0.5044,,0,1,548.4261,0,9,9,9,1,stimuli/bead_g.PNG,stimuli/bead_y.PNG,stimuli/bead_y.PNG,stimuli/bead_b.PNG,stimuli/bead_y.PNG,2,3,right
,,,,2023-10-10_10h57.54.936,Fish_Game,2023.1.3,MacIntel,60.0024001,,,,,,,,,,,,,11,,,,,,,,,,,,,,up,0.7587,,0,0.5,550.2119,0,10,10,10,1,stimuli/bead_g.PNG,stimuli/bead_g.PNG,stimuli/bead_y.PNG,stimuli/bead_y.PNG,stimuli/bead_b.PNG,2,3,right
,,,,2023-10-10_10h57.54.936,Fish_Game,2023.1.3,MacIntel,60.0024001,,,,,,,,,,,,,12,,,,,,,,,,,,,,up,0.9787,,0,1.5,553.2178,0,11,11,11,1,stimuli/bead_y.PNG,stimuli/bead_g.PNG,stimuli/bead_g.PNG,stimuli/bead_y.PNG,stimuli/bead_y.PNG,2,3,right
,,,,2023-10-10_10h57.54.936,Fish_Game,2023.1.3,MacIntel,60.0024001,,,,,,,,,,,,,13,,,,,,,,,,,,,,right,0.8062,,1,0.5,555.0489,0,12,12,12,1,stimuli/bead_g.PNG,stimuli/bead_y.PNG,stimuli/bead_g.PNG,stimuli/bead_g.PNG,stimuli/bead_y.PNG,2,3,right
,,,,2023-10-10_10h57.54.936,Fish_Game,2023.1.3,MacIntel,60.0024001,,,,,,,,,,,,,14,,,,,,,,,,,,,,right,0.4033,,1,0.5,556.4821,0,13,13,13,1,stimuli/bead_g.PNG,stimuli/bead_g.PNG,stimuli/bead_y.PNG,stimuli/bead_g.PNG,stimuli/bead_g.PNG,2,3,right
,,,,2023-10-10_10h57.54.936,Fish_Game,2023.1.3,MacIntel,60.0024001,,,,,,,,,,,,,15,,,,,,,,,,,,,,right,0.4135,,1,1,558.4352,0,14,14,14,1,stimuli/bead_g.PNG,stimuli/bead_g.PNG,stimuli/bead_g.PNG,stimuli/bead_y.PNG,stimuli/bead_g.PNG,2,3,right
,,,,2023-10-10_10h57.54.936,Fish_Game,2023.1.3,MacIntel,60.0024001,,,,,,,,,,,,,1,,,,,,,,,,,,9,1condition/mainTrials9.xlsx,right,0.6753,,1,1.5,566.1221,0,0,0,0,1,stimuli/bead_g.PNG,stimuli/blank.jpg,stimuli/blank.jpg,stimuli/blank.jpg,stimuli/blank.jpg,2,3,right
,,,,2023-10-10_10h57.54.936,Fish_Game,2023.1.3,MacIntel,60.0024001,,,,,,,,,,,,,2,,,,,,,,,,,,,,right,0.8345,,1,1.5,568.9903,0,1,1,1,1,stimuli/bead_g.PNG,stimuli/bead_g.PNG,stimuli/blank.jpg,stimuli/blank.jpg,stimuli/blank.jpg,2,3,right
,,,,2023-10-10_10h57.54.936,Fish_Game,2023.1.3,MacIntel,60.0024001,,,,,,,,,,,,,3,,,,,,,,,,,,,,right,0.6578,,1,1,571.1561,0,2,2,2,1,stimuli/bead_b.PNG,stimuli/bead_g.PNG,stimuli/bead_g.PNG,stimuli/blank.jpg,stimuli/blank.jpg,2,3,right
,,,,2023-10-10_10h57.54.936,Fish_Game,2023.1.3,MacIntel,60.0024001,,,,,,,,,,,,,4,,,,,,,,,,,,,,right,0.3744,,1,0.5,572.5535,0,3,3,3,1,stimuli/bead_g.PNG,stimuli/bead_b.PNG,stimuli/bead_g.PNG,stimuli/bead_g.PNG,stimuli/blank.jpg,2,3,right
,,,,2023-10-10_10h57.54.936,Fish_Game,2023.1.3,MacIntel,60.0024001,,,,,,,,,,,,,5,,,,,,,,,,,,,,right,0.418,,1,0.5,573.9932,0,4,4,4,1,stimuli/bead_g.PNG,stimuli/bead_g.PNG,stimuli/bead_b.PNG,stimuli/bead_g.PNG,stimuli/bead_g.PNG,2,3,right
,,,,2023-10-10_10h57.54.936,Fish_Game,2023.1.3,MacIntel,60.0024001,,,,,,,,,,,,,6,,,,,,,,,,,,,,right,0.4412,,1,1.5,576.4612,0,5,5,5,1,stimuli/bead_b.PNG,stimuli/bead_g.PNG,stimuli/bead_g.PNG,stimuli/bead_b.PNG,stimuli/bead_g.PNG,2,3,right
,,,,2023-10-10_10h57.54.936,Fish_Game,2023.1.3,MacIntel,60.0024001,,,,,,,,,,,,,7,,,,,,,,,,,,,,right,0.3556,,1,1,578.3458,0,6,6,6,1,stimuli/bead_g.PNG,stimuli/bead_b.PNG,stimuli/bead_g.PNG,stimuli/bead_g.PNG,stimuli/bead_b.PNG,2,3,right
,,,,2023-10-10_10h57.54.936,Fish_Game,2023.1.3,MacIntel,60.0024001,,,,,,,,,,,,,8,,,,,,,,,,,,,,right,0.421,,1,1,580.2926,0,7,7,7,1,stimuli/bead_g.PNG,stimuli/bead_g.PNG,stimuli/bead_b.PNG,stimuli/bead_g.PNG,stimuli/bead_g.PNG,2,3,right
,,,,2023-10-10_10h57.54.936,Fish_Game,2023.1.3,MacIntel,60.0024001,,,,,,,,,,,,,9,,,,,,,,,,,,,,right,0.4849,,0,1.5,582.8095,0,8,8,8,1,stimuli/bead_b.PNG,stimuli/bead_g.PNG,stimuli/bead_g.PNG,stimuli/bead_b.PNG,stimuli/bead_g.PNG,0,1,left
,,,,2023-10-10_10h57.54.936,Fish_Game,2023.1.3,MacIntel,60.0024001,,,,,,,,,,,,,10,,,,,,,,,,,,,,right,0.8738,,0,0.5,584.6982,0,9,9,9,1,stimuli/bead_y.PNG,stimuli/bead_b.PNG,stimuli/bead_g.PNG,stimuli/bead_g.PNG,stimuli/bead_b.PNG,0,1,left
,,,,2023-10-10_10h57.54.936,Fish_Game,2023.1.3,MacIntel,60.0024001,,,,,,,,,,,,,11,,,,,,,,,,,,,,left,1.3064,,1,0.5,587.0339,0,10,10,10,1,stimuli/bead_b.PNG,stimuli/bead_y.PNG,stimuli/bead_b.PNG,stimuli/bead_g.PNG,stimuli/bead_g.PNG,0,1,left
,,,,2023-10-10_10h57.54.936,Fish_Game,2023.1.3,MacIntel,60.0024001,,,,,,,,,,,,,12,,,,,,,,,,,,,,left,0.3916,,1,1,588.9477,0,11,11,11,1,stimuli/bead_b.PNG,stimuli/bead_b.PNG,stimuli/bead_y.PNG,stimuli/bead_b.PNG,stimuli/bead_g.PNG,0,1,left
,,,,2023-10-10_10h57.54.936,Fish_Game,2023.1.3,MacIntel,60.0024001,,,,,,,,,,,,,13,,,,,,,,,,,,,,left,0.4032,,1,1,590.9013,0,12,12,12,1,stimuli/bead_b.PNG,stimuli/bead_b.PNG,stimuli/bead_b.PNG,stimuli/bead_y.PNG,stimuli/bead_b.PNG,0,1,left
,,,,2023-10-10_10h57.54.936,Fish_Game,2023.1.3,MacIntel,60.0024001,,,,,,,,,,,,,14,,,,,,,,,,,,,,left,0.5811,,1,1.5,593.5204,0,13,13,13,1,stimuli/bead_g.PNG,stimuli/bead_b.PNG,stimuli/bead_b.PNG,stimuli/bead_b.PNG,stimuli/bead_y.PNG,0,1,left
,,,,2023-10-10_10h57.54.936,Fish_Game,2023.1.3,MacIntel,60.0024001,,,,,,,,,,,,,15,,,,,,,,,,,,,,left,0.4876,,1,0.5,595.0224,0,14,14,14,1,stimuli/bead_b.PNG,stimuli/bead_g.PNG,stimuli/bead_b.PNG,stimuli/bead_b.PNG,stimuli/bead_b.PNG,0,1,left
,,,,2023-10-10_10h57.54.936,Fish_Game,2023.1.3,MacIntel,60.0024001,,,,,,,,,,,,,1,,,,,,,,,,,,10,1condition/mainTrials6.xlsx,left,0.602,,0,1.5,602.6541,0,0,0,0,1,stimuli/bead_b.PNG,stimuli/blank.jpg,stimuli/blank.jpg,stimuli/blank.jpg,stimuli/blank.jpg,1,2,up
,,,,2023-10-10_10h57.54.936,Fish_Game,2023.1.3,MacIntel,60.0024001,,,,,,,,,,,,,2,,,,,,,,,,,,,,up,0.7179,,1,1.5,605.3954,0,1,1,1,1,stimuli/bead_y.PNG,stimuli/bead_b.PNG,stimuli/blank.jpg,stimuli/blank.jpg,stimuli/blank.jpg,1,2,up
,,,,2023-10-10_10h57.54.936,Fish_Game,2023.1.3,MacIntel,60.0024001,,,,,,,,,,,,,3,,,,,,,,,,,,,,up,0.5027,,1,0.5,606.9282,0,2,2,2,1,stimuli/bead_y.PNG,stimuli/bead_y.PNG,stimuli/bead_b.PNG,stimuli/blank.jpg,stimuli/blank.jpg,1,2,up
,,,,2023-10-10_10h57.54.936,Fish_Game,2023.1.3,MacIntel,60.0024001,,,,,,,,,,,,,4,,,,,,,,,,,,,,up,0.4347,,1,1.5,609.3769,0,3,3,3,1,stimuli/bead_y.PNG,stimuli/bead_y.PNG,stimuli/bead_y.PNG,stimuli/bead_b.PNG,stimuli/blank.jpg,1,2,up
,,,,2023-10-10_10h57.54.936,Fish_Game,2023.1.3,MacIntel,60.0024001,,,,,,,,,,,,,5,,,,,,,,,,,,,,up,0.5712,,0,1,611.4761,0,4,4,4,1,stimuli/bead_g.PNG,stimuli/bead_y.PNG,stimuli/bead_y.PNG,stimuli/bead_y.PNG,stimuli/bead_b.PNG,2,3,right
,,,,2023-10-10_10h57.54.936,Fish_Game,2023.1.3,MacIntel,60.0024001,,,,,,,,,,,,,6,,,,,,,,,,,,,,right,0.7625,,1,0.5,613.2664,0,5,5,5,1,stimuli/bead_g.PNG,stimuli/bead_g.PNG,stimuli/bead_y.PNG,stimuli/bead_y.PNG,stimuli/bead_y.PNG,2,3,right
,,,,2023-10-10_10h57.54.936,Fish_Game,2023.1.3,MacIntel,60.0024001,,,,,,,,,,,,,7,,,,,,,,,,,,,,right,0.5338,,1,1.5,615.8341,0,6,6,6,1,stimuli/bead_y.PNG,stimuli/bead_g.PNG,stimuli/bead_g.PNG,stimuli/bead_y.PNG,stimuli/bead_y.PNG,2,3,right
,,,,2023-10-10_10h57.54.936,Fish_Game,2023.1.3,MacIntel,60.0024001,,,,,,,,,,,,,8,,,,,,,,,,,,,,right,0.4413,,1,0.5,617.3002,0,7,7,7,1,stimuli/bead_g.PNG,stimuli/bead_y.PNG,stimuli/bead_g.PNG,stimuli/bead_g.PNG,stimuli/bead_y.PNG,2,3,right
,,,,2023-10-10_10h57.54.936,Fish_Game,2023.1.3,MacIntel,60.0024001,,,,,,,,,,,,,9,,,,,,,,,,,,,,right,0.4755,,1,1.5,619.7981,0,8,8,8,1,stimuli/bead_g.PNG,stimuli/bead_g.PNG,stimuli/bead_y.PNG,stimuli/bead_g.PNG,stimuli/bead_g.PNG,2,3,right
,,,,2023-10-10_10h57.54.936,Fish_Game,2023.1.3,MacIntel,60.0024001,,,,,,,,,,,,,10,,,,,,,,,,,,,,right,0.4512,,1,1,621.7839,0,9,9,9,1,stimuli/bead_g.PNG,stimuli/bead_g.PNG,stimuli/bead_g.PNG,stimuli/bead_y.PNG,stimuli/bead_g.PNG,2,3,right
,,,,2023-10-10_10h57.54.936,Fish_Game,2023.1.3,MacIntel,60.0024001,,,,,,,,,,,,,11,,,,,,,,,,,,,,right,0.5002,,0,1.5,624.3062,0,10,10,10,1,stimuli/bead_y.PNG,stimuli/bead_g.PNG,stimuli/bead_g.PNG,stimuli/bead_g.PNG,stimuli/bead_y.PNG,1,2,up
,,,,2023-10-10_10h57.54.936,Fish_Game,2023.1.3,MacIntel,60.0024001,,,,,,,,,,,,,12,,,,,,,,,,,,,,right,0.6159,,0,1,626.441,0,11,11,11,1,stimuli/bead_b.PNG,stimuli/bead_y.PNG,stimuli/bead_g.PNG,stimuli/bead_g.PNG,stimuli/bead_g.PNG,1,2,up
,,,,2023-10-10_10h57.54.936,Fish_Game,2023.1.3,MacIntel,60.0024001,,,,,,,,,,,,,13,,,,,,,,,,,,,,up,0.7751,,1,0.5,628.2387,0,12,12,12,1,stimuli/bead_y.PNG,stimuli/bead_b.PNG,stimuli/bead_y.PNG,stimuli/bead_g.PNG,stimuli/bead_g.PNG,1,2,up
,,,,2023-10-10_10h57.54.936,Fish_Game,2023.1.3,MacIntel,60.0024001,,,,,,,,,,,,,14,,,,,,,,,,,,,,up,0.3904,,1,1.5,630.6393,0,13,13,13,1,stimuli/bead_y.PNG,stimuli/bead_y.PNG,stimuli/bead_b.PNG,stimuli/bead_y.PNG,stimuli/bead_g.PNG,1,2,up
,,,,2023-10-10_10h57.54.936,Fish_Game,2023.1.3,MacIntel,60.0024001,,,,,,,,,,,,,15,,,,,,,,,,,,,,up,0.3546,,1,1.5,633.0218,0,14,14,14,1,stimuli/bead_y.PNG,stimuli/bead_y.PNG,stimuli/bead_y.PNG,stimuli/bead_b.PNG,stimuli/bead_y.PNG,1,2,up
