welcome_key.keys,welcome_key.rt,welcome_key.duration,participant,date,expName,psychopyVersion,OS,frameRate,ins1_key.keys,ins1_key.rt,ins1_key.duration,key_resp_2.keys,key_resp_2.rt,key_resp_2.duration,fish_key_2.corr,prac_trials.thisRepN,prac_trials.thisTrialN,prac_trials.thisN,prac_trials.thisIndex,prac_trials.ran,trial,fish1_p,fish2_p,fish3_p,fish4_p,fish5_p,pond_p,pond_p2,pond_p3,ExpStart_key.keys,ExpStart_key.rt,ExpStart_key.duration,block number,block assignment,fish_key_button.keys,fish_key_button.rt,fish_key_button.duration,fish_key.corr,fish_interval,key_resp_time,trials.thisRepN,trials.thisTrialN,trials.thisN,trials.thisIndex,trials.ran,fish1,fish2,fish3,fish4,fish5,pond,pond2,pond3
space,2.0035,,,2023-10-10_15h07.44.365,Fish_Game,2023.1.3,MacIntel,60.0024001,,,,,,,,,,,,,,,,,,,,,,,,,,,,,,,,,,,,,,,,,,,,,
,,,,2023-10-10_15h07.44.365,Fish_Game,2023.1.3,MacIntel,60.0024001,,,,,,,,,,,,,,,,,,,,,,,,,,,,,,,,,,,,,,,,,,,,,
,,,,2023-10-10_15h07.44.365,Fish_Game,2023.1.3,MacIntel,60.0024001,space,2.0285,,,,,,,,,,,,,,,,,,,,,,,,,,,,,,,,,,,,,,,,,,,
,,,,2023-10-10_15h07.44.365,Fish_Game,2023.1.3,MacIntel,60.0024001,,,,,,,,,,,,,,,,,,,,,,,,,,,,,,,,,,,,,,,,,,,,,
,,,,2023-10-10_15h07.44.365,Fish_Game,2023.1.3,MacIntel,60.0024001,,,,,,,,,,,,,,,,,,,,,,,,,,,,,,,,,,,,,,,,,,,,,
,,,,2023-10-10_15h07.44.365,Fish_Game,2023.1.3,MacIntel,60.0024001,,,,left,2.4978,,1,0,0,0,0,1,1,stimuli/bead_b.PNG,stimuli/blank.jpg,stimuli/blank.jpg,stimuli/blank.jpg,stimuli/blank.jpg,0,1,left,,,,,,,,,,,,,,,,,,,,,,,,
,,,,2023-10-10_15h07.44.365,Fish_Game,2023.1.3,MacIntel,60.0024001,,,,left,0.6691,,1,0,1,1,1,1,2,stimuli/bead_b.PNG,stimuli/bead_b.PNG,stimuli/blank.jpg,stimuli/blank.jpg,stimuli/blank.jpg,0,1,left,,,,,,,,,,,,,,,,,,,,,,,,
,,,,2023-10-10_15h07.44.365,Fish_Game,2023.1.3,MacIntel,60.0024001,,,,right,0.6653,,0,0,2,2,2,1,3,stimuli/bead_g.PNG,stimuli/bead_b.PNG,stimuli/bead_b.PNG,stimuli/blank.jpg,stimuli/blank.jpg,0,1,left,,,,,,,,,,,,,,,,,,,,,,,,
,,,,2023-10-10_15h07.44.365,Fish_Game,2023.1.3,MacIntel,60.0024001,,,,left,0.5984,,1,0,3,3,3,1,4,stimuli/bead_b.PNG,stimuli/bead_g.PNG,stimuli/bead_b.PNG,stimuli/bead_b.PNG,stimuli/blank.jpg,0,1,left,,,,,,,,,,,,,,,,,,,,,,,,
,,,,2023-10-10_15h07.44.365,Fish_Game,2023.1.3,MacIntel,60.0024001,,,,left,0.4177,,1,0,4,4,4,1,5,stimuli/bead_b.PNG,stimuli/bead_b.PNG,stimuli/bead_g.PNG,stimuli/bead_b.PNG,stimuli/bead_b.PNG,0,1,left,,,,,,,,,,,,,,,,,,,,,,,,
,,,,2023-10-10_15h07.44.365,Fish_Game,2023.1.3,MacIntel,60.0024001,,,,up,0.4663,,0,0,5,5,5,1,6,stimuli/bead_y.PNG,stimuli/bead_b.PNG,stimuli/bead_b.PNG,stimuli/bead_g.PNG,stimuli/bead_b.PNG,0,1,left,,,,,,,,,,,,,,,,,,,,,,,,
,,,,2023-10-10_15h07.44.365,Fish_Game,2023.1.3,MacIntel,60.0024001,,,,left,0.8864,,1,0,6,6,6,1,7,stimuli/bead_b.PNG,stimuli/bead_y.PNG,stimuli/bead_b.PNG,stimuli/bead_b.PNG,stimuli/bead_g.PNG,0,1,left,,,,,,,,,,,,,,,,,,,,,,,,
,,,,2023-10-10_15h07.44.365,Fish_Game,2023.1.3,MacIntel,60.0024001,,,,up,0.5443,,1,0,7,7,7,1,8,stimuli/bead_y.PNG,stimuli/bead_b.PNG,stimuli/bead_y.PNG,stimuli/bead_b.PNG,stimuli/bead_b.PNG,1,2,up,,,,,,,,,,,,,,,,,,,,,,,,
,,,,2023-10-10_15h07.44.365,Fish_Game,2023.1.3,MacIntel,60.0024001,,,,up,0.5349,,1,0,8,8,8,1,9,stimuli/bead_y.PNG,stimuli/bead_y.PNG,stimuli/bead_b.PNG,stimuli/bead_y.PNG,stimuli/bead_b.PNG,1,2,up,,,,,,,,,,,,,,,,,,,,,,,,
,,,,2023-10-10_15h07.44.365,Fish_Game,2023.1.3,MacIntel,60.0024001,,,,left,0.6032,,0,0,9,9,9,1,10,stimuli/bead_b.PNG,stimuli/bead_y.PNG,stimuli/bead_y.PNG,stimuli/bead_b.PNG,stimuli/bead_y.PNG,1,2,up,,,,,,,,,,,,,,,,,,,,,,,,
,,,,2023-10-10_15h07.44.365,Fish_Game,2023.1.3,MacIntel,60.0024001,,,,up,0.6013,,1,0,10,10,10,1,11,stimuli/bead_y.PNG,stimuli/bead_b.PNG,stimuli/bead_y.PNG,stimuli/bead_y.PNG,stimuli/bead_b.PNG,1,2,up,,,,,,,,,,,,,,,,,,,,,,,,
,,,,2023-10-10_15h07.44.365,Fish_Game,2023.1.3,MacIntel,60.0024001,,,,up,0.7344,,1,0,11,11,11,1,12,stimuli/bead_y.PNG,stimuli/bead_y.PNG,stimuli/bead_b.PNG,stimuli/bead_y.PNG,stimuli/bead_y.PNG,1,2,up,,,,,,,,,,,,,,,,,,,,,,,,
,,,,2023-10-10_15h07.44.365,Fish_Game,2023.1.3,MacIntel,60.0024001,,,,left,0.65,,0,0,12,12,12,1,13,stimuli/bead_b.PNG,stimuli/bead_y.PNG,stimuli/bead_y.PNG,stimuli/bead_b.PNG,stimuli/bead_y.PNG,1,2,up,,,,,,,,,,,,,,,,,,,,,,,,
,,,,2023-10-10_15h07.44.365,Fish_Game,2023.1.3,MacIntel,60.0024001,,,,up,0.5819,,1,0,13,13,13,1,14,stimuli/bead_y.PNG,stimuli/bead_b.PNG,stimuli/bead_y.PNG,stimuli/bead_y.PNG,stimuli/bead_b.PNG,1,2,up,,,,,,,,,,,,,,,,,,,,,,,,
,,,,2023-10-10_15h07.44.365,Fish_Game,2023.1.3,MacIntel,60.0024001,,,,up,0.6791,,1,0,14,14,14,1,15,stimuli/bead_y.PNG,stimuli/bead_y.PNG,stimuli/bead_b.PNG,stimuli/bead_y.PNG,stimuli/bead_y.PNG,1,2,up,,,,,,,,,,,,,,,,,,,,,,,,
,,,,2023-10-10_15h07.44.365,Fish_Game,2023.1.3,MacIntel,60.0024001,,,,right,0.8682,,1,0,0,0,0,1,1,stimuli/bead_g.PNG,stimuli/blank.jpg,stimuli/blank.jpg,stimuli/blank.jpg,stimuli/blank.jpg,2,3,right,,,,,,,,,,,,,,,,,,,,,,,,
,,,,2023-10-10_15h07.44.365,Fish_Game,2023.1.3,MacIntel,60.0024001,,,,right,0.4988,,1,0,1,1,1,1,2,stimuli/bead_g.PNG,stimuli/bead_g.PNG,stimuli/blank.jpg,stimuli/blank.jpg,stimuli/blank.jpg,2,3,right,,,,,,,,,,,,,,,,,,,,,,,,
,,,,2023-10-10_15h07.44.365,Fish_Game,2023.1.3,MacIntel,60.0024001,,,,left,0.6656,,0,0,2,2,2,1,3,stimuli/bead_b.PNG,stimuli/bead_g.PNG,stimuli/bead_g.PNG,stimuli/blank.jpg,stimuli/blank.jpg,2,3,right,,,,,,,,,,,,,,,,,,,,,,,,
,,,,2023-10-10_15h07.44.365,Fish_Game,2023.1.3,MacIntel,60.0024001,,,,left,0.5502,,0,0,3,3,3,1,4,stimuli/bead_g.PNG,stimuli/bead_b.PNG,stimuli/bead_g.PNG,stimuli/bead_g.PNG,stimuli/blank.jpg,2,3,right,,,,,,,,,,,,,,,,,,,,,,,,
,,,,2023-10-10_15h07.44.365,Fish_Game,2023.1.3,MacIntel,60.0024001,,,,left,0.5155,,0,0,4,4,4,1,5,stimuli/bead_b.PNG,stimuli/bead_g.PNG,stimuli/bead_b.PNG,stimuli/bead_g.PNG,stimuli/bead_g.PNG,2,3,right,,,,,,,,,,,,,,,,,,,,,,,,
,,,,2023-10-10_15h07.44.365,Fish_Game,2023.1.3,MacIntel,60.0024001,,,,right,0.5895,,1,0,5,5,5,1,6,stimuli/bead_g.PNG,stimuli/bead_b.PNG,stimuli/bead_g.PNG,stimuli/bead_b.PNG,stimuli/bead_g.PNG,2,3,right,,,,,,,,,,,,,,,,,,,,,,,,
,,,,2023-10-10_15h07.44.365,Fish_Game,2023.1.3,MacIntel,60.0024001,,,,right,0.4482,,1,0,6,6,6,1,7,stimuli/bead_g.PNG,stimuli/bead_g.PNG,stimuli/bead_b.PNG,stimuli/bead_g.PNG,stimuli/bead_b.PNG,2,3,right,,,,,,,,,,,,,,,,,,,,,,,,
,,,,2023-10-10_15h07.44.365,Fish_Game,2023.1.3,MacIntel,60.0024001,,,,right,0.3462,,1,0,7,7,7,1,8,stimuli/bead_g.PNG,stimuli/bead_g.PNG,stimuli/bead_g.PNG,stimuli/bead_b.PNG,stimuli/bead_g.PNG,2,3,right,,,,,,,,,,,,,,,,,,,,,,,,
,,,,2023-10-10_15h07.44.365,Fish_Game,2023.1.3,MacIntel,60.0024001,,,,up,0.8471,,1,0,8,8,8,1,9,stimuli/bead_y.PNG,stimuli/bead_g.PNG,stimuli/bead_g.PNG,stimuli/bead_g.PNG,stimuli/bead_b.PNG,1,2,up,,,,,,,,,,,,,,,,,,,,,,,,
,,,,2023-10-10_15h07.44.365,Fish_Game,2023.1.3,MacIntel,60.0024001,,,,up,0.4352,,1,0,9,9,9,1,10,stimuli/bead_y.PNG,stimuli/bead_y.PNG,stimuli/bead_g.PNG,stimuli/bead_g.PNG,stimuli/bead_g.PNG,1,2,up,,,,,,,,,,,,,,,,,,,,,,,,
,,,,2023-10-10_15h07.44.365,Fish_Game,2023.1.3,MacIntel,60.0024001,,,,up,0.3817,,1,0,10,10,10,1,11,stimuli/bead_y.PNG,stimuli/bead_y.PNG,stimuli/bead_y.PNG,stimuli/bead_g.PNG,stimuli/bead_g.PNG,1,2,up,,,,,,,,,,,,,,,,,,,,,,,,
,,,,2023-10-10_15h07.44.365,Fish_Game,2023.1.3,MacIntel,60.0024001,,,,right,0.6349,,0,0,11,11,11,1,12,stimuli/bead_g.PNG,stimuli/bead_y.PNG,stimuli/bead_y.PNG,stimuli/bead_y.PNG,stimuli/bead_g.PNG,1,2,up,,,,,,,,,,,,,,,,,,,,,,,,
,,,,2023-10-10_15h07.44.365,Fish_Game,2023.1.3,MacIntel,60.0024001,,,,up,0.7519,,1,0,12,12,12,1,13,stimuli/bead_y.PNG,stimuli/bead_g.PNG,stimuli/bead_y.PNG,stimuli/bead_y.PNG,stimuli/bead_y.PNG,1,2,up,,,,,,,,,,,,,,,,,,,,,,,,
,,,,2023-10-10_15h07.44.365,Fish_Game,2023.1.3,MacIntel,60.0024001,,,,up,0.6012,,1,0,13,13,13,1,14,stimuli/bead_y.PNG,stimuli/bead_y.PNG,stimuli/bead_g.PNG,stimuli/bead_y.PNG,stimuli/bead_y.PNG,1,2,up,,,,,,,,,,,,,,,,,,,,,,,,
,,,,2023-10-10_15h07.44.365,Fish_Game,2023.1.3,MacIntel,60.0024001,,,,left,0.6716,,0,0,14,14,14,1,15,stimuli/bead_b.PNG,stimuli/bead_y.PNG,stimuli/bead_y.PNG,stimuli/bead_g.PNG,stimuli/bead_y.PNG,1,2,up,,,,,,,,,,,,,,,,,,,,,,,,
,,,,2023-10-10_15h07.44.365,Fish_Game,2023.1.3,MacIntel,60.0024001,,,,,,,,,,,,,1,,,,,,,,,space,1.8839,,1,1condition/mainTrials10.xlsx,up,1.0704,,0,0.5,211.7483,0,0,0,0,1,stimuli/bead_y.PNG,stimuli/blank.jpg,stimuli/blank.jpg,stimuli/blank.jpg,stimuli/blank.jpg,0,1,left
,,,,2023-10-10_15h07.44.365,Fish_Game,2023.1.3,MacIntel,60.0024001,,,,,,,,,,,,,2,,,,,,,,,,,,,,left,0.7155,,1,0.5,213.4997,0,1,1,1,1,stimuli/bead_b.PNG,stimuli/bead_y.PNG,stimuli/blank.jpg,stimuli/blank.jpg,stimuli/blank.jpg,0,1,left
,,,,2023-10-10_15h07.44.365,Fish_Game,2023.1.3,MacIntel,60.0024001,,,,,,,,,,,,,3,,,,,,,,,,,,,,left,0.5001,,1,0.5,215.0319,0,2,2,2,1,stimuli/bead_b.PNG,stimuli/bead_b.PNG,stimuli/bead_y.PNG,stimuli/blank.jpg,stimuli/blank.jpg,0,1,left
,,,,2023-10-10_15h07.44.365,Fish_Game,2023.1.3,MacIntel,60.0024001,,,,,,,,,,,,,4,,,,,,,,,,,,,,left,0.5518,,1,1,217.1147,0,3,3,3,1,stimuli/bead_b.PNG,stimuli/bead_b.PNG,stimuli/bead_b.PNG,stimuli/bead_y.PNG,stimuli/blank.jpg,0,1,left
,,,,2023-10-10_15h07.44.365,Fish_Game,2023.1.3,MacIntel,60.0024001,,,,,,,,,,,,,5,,,,,,,,,,,,,,left,0.4807,,1,0.5,218.6306,0,4,4,4,1,stimuli/bead_b.PNG,stimuli/bead_b.PNG,stimuli/bead_b.PNG,stimuli/bead_b.PNG,stimuli/bead_y.PNG,0,1,left
,,,,2023-10-10_15h07.44.365,Fish_Game,2023.1.3,MacIntel,60.0024001,,,,,,,,,,,,,6,,,,,,,,,,,,,,right,0.5542,,0,1.5,221.2146,0,5,5,5,1,stimuli/bead_g.PNG,stimuli/bead_b.PNG,stimuli/bead_b.PNG,stimuli/bead_b.PNG,stimuli/bead_b.PNG,0,1,left
,,,,2023-10-10_15h07.44.365,Fish_Game,2023.1.3,MacIntel,60.0024001,,,,,,,,,,,,,7,,,,,,,,,,,,,,left,0.6472,,1,0.5,222.8986,0,6,6,6,1,stimuli/bead_b.PNG,stimuli/bead_g.PNG,stimuli/bead_b.PNG,stimuli/bead_b.PNG,stimuli/bead_b.PNG,0,1,left
,,,,2023-10-10_15h07.44.365,Fish_Game,2023.1.3,MacIntel,60.0024001,,,,,,,,,,,,,8,,,,,,,,,,,,,,left,0.7293,,1,1,225.1652,0,7,7,7,1,stimuli/bead_b.PNG,stimuli/bead_b.PNG,stimuli/bead_g.PNG,stimuli/bead_b.PNG,stimuli/bead_b.PNG,0,1,left
,,,,2023-10-10_15h07.44.365,Fish_Game,2023.1.3,MacIntel,60.0024001,,,,,,,,,,,,,9,,,,,,,,,,,,,,up,0.6979,,0,0.5,226.8818,0,8,8,8,1,stimuli/bead_y.PNG,stimuli/bead_b.PNG,stimuli/bead_b.PNG,stimuli/bead_g.PNG,stimuli/bead_b.PNG,0,1,left
,,,,2023-10-10_15h07.44.365,Fish_Game,2023.1.3,MacIntel,60.0024001,,,,,,,,,,,,,10,,,,,,,,,,,,,,left,0.6142,,1,1.5,229.5299,0,9,9,9,1,stimuli/bead_b.PNG,stimuli/bead_y.PNG,stimuli/bead_b.PNG,stimuli/bead_b.PNG,stimuli/bead_g.PNG,0,1,left
,,,,2023-10-10_15h07.44.365,Fish_Game,2023.1.3,MacIntel,60.0024001,,,,,,,,,,,,,11,,,,,,,,,,,,,,right,0.6328,,1,1,231.6982,0,10,10,10,1,stimuli/bead_g.PNG,stimuli/bead_b.PNG,stimuli/bead_y.PNG,stimuli/bead_b.PNG,stimuli/bead_b.PNG,2,3,right
,,,,2023-10-10_15h07.44.365,Fish_Game,2023.1.3,MacIntel,60.0024001,,,,,,,,,,,,,12,,,,,,,,,,,,,,left,0.6513,,0,1,233.8638,0,11,11,11,1,stimuli/bead_b.PNG,stimuli/bead_g.PNG,stimuli/bead_b.PNG,stimuli/bead_y.PNG,stimuli/bead_b.PNG,2,3,right
,,,,2023-10-10_15h07.44.365,Fish_Game,2023.1.3,MacIntel,60.0024001,,,,,,,,,,,,,13,,,,,,,,,,,,,,right,0.5489,,1,0.5,235.4493,0,12,12,12,1,stimuli/bead_g.PNG,stimuli/bead_b.PNG,stimuli/bead_g.PNG,stimuli/bead_b.PNG,stimuli/bead_y.PNG,2,3,right
,,,,2023-10-10_15h07.44.365,Fish_Game,2023.1.3,MacIntel,60.0024001,,,,,,,,,,,,,14,,,,,,,,,,,,,,right,0.4653,,1,0.5,236.9321,0,13,13,13,1,stimuli/bead_g.PNG,stimuli/bead_g.PNG,stimuli/bead_b.PNG,stimuli/bead_g.PNG,stimuli/bead_b.PNG,2,3,right
,,,,2023-10-10_15h07.44.365,Fish_Game,2023.1.3,MacIntel,60.0024001,,,,,,,,,,,,,15,,,,,,,,,,,,,,right,0.5013,,1,1.5,239.4639,0,14,14,14,1,stimuli/bead_g.PNG,stimuli/bead_g.PNG,stimuli/bead_g.PNG,stimuli/bead_b.PNG,stimuli/bead_g.PNG,2,3,right
,,,,2023-10-10_15h07.44.365,Fish_Game,2023.1.3,MacIntel,60.0024001,,,,,,,,,,,,,1,,,,,,,,,,,,2,1condition/mainTrials2.xlsx,up,0.8151,,1,0.5,246.3134,0,0,0,0,1,stimuli/bead_y.PNG,stimuli/blank.jpg,stimuli/blank.jpg,stimuli/blank.jpg,stimuli/blank.jpg,1,2,up
,,,,2023-10-10_15h07.44.365,Fish_Game,2023.1.3,MacIntel,60.0024001,,,,,,,,,,,,,2,,,,,,,,,,,,,,left,0.4668,,0,1.5,248.8151,0,1,1,1,1,stimuli/bead_b.PNG,stimuli/bead_y.PNG,stimuli/blank.jpg,stimuli/blank.jpg,stimuli/blank.jpg,1,2,up
,,,,2023-10-10_15h07.44.365,Fish_Game,2023.1.3,MacIntel,60.0024001,,,,,,,,,,,,,3,,,,,,,,,,,,,,up,0.4526,,1,0.5,250.2967,0,2,2,2,1,stimuli/bead_y.PNG,stimuli/bead_b.PNG,stimuli/bead_y.PNG,stimuli/blank.jpg,stimuli/blank.jpg,1,2,up
,,,,2023-10-10_15h07.44.365,Fish_Game,2023.1.3,MacIntel,60.0024001,,,,,,,,,,,,,4,,,,,,,,,,,,,,up,0.6629,,1,1,252.4972,0,3,3,3,1,stimuli/bead_y.PNG,stimuli/bead_y.PNG,stimuli/bead_b.PNG,stimuli/bead_y.PNG,stimuli/blank.jpg,1,2,up
,,,,2023-10-10_15h07.44.365,Fish_Game,2023.1.3,MacIntel,60.0024001,,,,,,,,,,,,,5,,,,,,,,,,,,,,right,0.5186,,0,0.5,254.0321,0,4,4,4,1,stimuli/bead_g.PNG,stimuli/bead_y.PNG,stimuli/bead_y.PNG,stimuli/bead_b.PNG,stimuli/bead_y.PNG,1,2,up
,,,,2023-10-10_15h07.44.365,Fish_Game,2023.1.3,MacIntel,60.0024001,,,,,,,,,,,,,6,,,,,,,,,,,,,,up,0.5132,,1,1.5,256.5814,0,5,5,5,1,stimuli/bead_y.PNG,stimuli/bead_g.PNG,stimuli/bead_y.PNG,stimuli/bead_y.PNG,stimuli/bead_b.PNG,1,2,up
,,,,2023-10-10_15h07.44.365,Fish_Game,2023.1.3,MacIntel,60.0024001,,,,,,,,,,,,,7,,,,,,,,,,,,,,left,0.515,,1,0.5,258.1167,0,6,6,6,1,stimuli/bead_b.PNG,stimuli/bead_y.PNG,stimuli/bead_g.PNG,stimuli/bead_y.PNG,stimuli/bead_y.PNG,0,1,left
,,,,2023-10-10_15h07.44.365,Fish_Game,2023.1.3,MacIntel,60.0024001,,,,,,,,,,,,,8,,,,,,,,,,,,,,left,0.3517,,1,0.5,259.5002,0,7,7,7,1,stimuli/bead_b.PNG,stimuli/bead_b.PNG,stimuli/bead_y.PNG,stimuli/bead_g.PNG,stimuli/bead_y.PNG,0,1,left
,,,,2023-10-10_15h07.44.365,Fish_Game,2023.1.3,MacIntel,60.0024001,,,,,,,,,,,,,9,,,,,,,,,,,,,,up,0.3674,,0,1.5,261.8814,0,8,8,8,1,stimuli/bead_y.PNG,stimuli/bead_b.PNG,stimuli/bead_b.PNG,stimuli/bead_y.PNG,stimuli/bead_g.PNG,0,1,left
,,,,2023-10-10_15h07.44.365,Fish_Game,2023.1.3,MacIntel,60.0024001,,,,,,,,,,,,,10,,,,,,,,,,,,,,left,0.7303,,1,1.5,264.6508,0,9,9,9,1,stimuli/bead_b.PNG,stimuli/bead_y.PNG,stimuli/bead_b.PNG,stimuli/bead_b.PNG,stimuli/bead_y.PNG,0,1,left
,,,,2023-10-10_15h07.44.365,Fish_Game,2023.1.3,MacIntel,60.0024001,,,,,,,,,,,,,11,,,,,,,,,,,,,,left,0.5333,,1,1,266.7153,0,10,10,10,1,stimuli/bead_b.PNG,stimuli/bead_b.PNG,stimuli/bead_y.PNG,stimuli/bead_b.PNG,stimuli/bead_b.PNG,0,1,left
,,,,2023-10-10_15h07.44.365,Fish_Game,2023.1.3,MacIntel,60.0024001,,,,,,,,,,,,,12,,,,,,,,,,,,,,left,1.5503,,1,1.5,270.2799,0,11,11,11,1,stimuli/bead_b.PNG,stimuli/bead_b.PNG,stimuli/bead_b.PNG,stimuli/bead_y.PNG,stimuli/bead_b.PNG,0,1,left
,,,,2023-10-10_15h07.44.365,Fish_Game,2023.1.3,MacIntel,60.0024001,,,,,,,,,,,,,13,,,,,,,,,,,,,,right,0.567,,0,1.5,272.8814,0,12,12,12,1,stimuli/bead_g.PNG,stimuli/bead_b.PNG,stimuli/bead_b.PNG,stimuli/bead_b.PNG,stimuli/bead_y.PNG,0,1,left
,,,,2023-10-10_15h07.44.365,Fish_Game,2023.1.3,MacIntel,60.0024001,,,,,,,,,,,,,14,,,,,,,,,,,,,,left,0.7454,,1,0.5,274.6466,0,13,13,13,1,stimuli/bead_b.PNG,stimuli/bead_g.PNG,stimuli/bead_b.PNG,stimuli/bead_b.PNG,stimuli/bead_b.PNG,0,1,left
,,,,2023-10-10_15h07.44.365,Fish_Game,2023.1.3,MacIntel,60.0024001,,,,,,,,,,,,,15,,,,,,,,,,,,,,left,0.5038,,1,0.5,276.1802,0,14,14,14,1,stimuli/bead_b.PNG,stimuli/bead_b.PNG,stimuli/bead_g.PNG,stimuli/bead_b.PNG,stimuli/bead_b.PNG,0,1,left
,,,,2023-10-10_15h07.44.365,Fish_Game,2023.1.3,MacIntel,60.0024001,,,,,,,,,,,,,1,,,,,,,,,,,,3,1condition/mainTrials8.xlsx,,,,,0.5,276.1802,0,0,0,0,1,stimuli/bead_y.PNG,stimuli/blank.jpg,stimuli/blank.jpg,stimuli/blank.jpg,stimuli/blank.jpg,0,1,left
,,,,2023-10-10_15h07.44.365,Fish_Game,2023.1.3,MacIntel,60.0024001,,,,,,,,,,,,,2,,,,,,,,,,,,,,,,,,0.5,276.1802,0,1,1,1,1,stimuli/bead_b.PNG,stimuli/bead_y.PNG,stimuli/blank.jpg,stimuli/blank.jpg,stimuli/blank.jpg,0,1,left
,,,,2023-10-10_15h07.44.365,Fish_Game,2023.1.3,MacIntel,60.0024001,,,,,,,,,,,,,3,,,,,,,,,,,,,,right,0.733,,0,1.5,294.3799,0,2,2,2,1,stimuli/bead_g.PNG,stimuli/bead_b.PNG,stimuli/bead_y.PNG,stimuli/blank.jpg,stimuli/blank.jpg,0,1,left
,,,,2023-10-10_15h07.44.365,Fish_Game,2023.1.3,MacIntel,60.0024001,,,,,,,,,,,,,4,,,,,,,,,,,,,,left,0.6206,,1,1,296.5126,0,3,3,3,1,stimuli/bead_b.PNG,stimuli/bead_g.PNG,stimuli/bead_b.PNG,stimuli/bead_y.PNG,stimuli/blank.jpg,0,1,left
,,,,2023-10-10_15h07.44.365,Fish_Game,2023.1.3,MacIntel,60.0024001,,,,,,,,,,,,,5,,,,,,,,,,,,,,left,0.5325,,1,1.5,299.0807,0,4,4,4,1,stimuli/bead_b.PNG,stimuli/bead_b.PNG,stimuli/bead_g.PNG,stimuli/bead_b.PNG,stimuli/bead_y.PNG,0,1,left
,,,,2023-10-10_15h07.44.365,Fish_Game,2023.1.3,MacIntel,60.0024001,,,,,,,,,,,,,6,,,,,,,,,,,,,,left,0.5533,,1,1,301.1639,0,5,5,5,1,stimuli/bead_b.PNG,stimuli/bead_b.PNG,stimuli/bead_b.PNG,stimuli/bead_g.PNG,stimuli/bead_b.PNG,0,1,left
,,,,2023-10-10_15h07.44.365,Fish_Game,2023.1.3,MacIntel,60.0024001,,,,,,,,,,,,,7,,,,,,,,,,,,,,right,0.6978,,0,1.5,303.897,0,6,6,6,1,stimuli/bead_g.PNG,stimuli/bead_b.PNG,stimuli/bead_b.PNG,stimuli/bead_b.PNG,stimuli/bead_g.PNG,0,1,left
,,,,2023-10-10_15h07.44.365,Fish_Game,2023.1.3,MacIntel,60.0024001,,,,,,,,,,,,,8,,,,,,,,,,,,,,left,0.5496,,1,1.5,306.4794,0,7,7,7,1,stimuli/bead_b.PNG,stimuli/bead_g.PNG,stimuli/bead_b.PNG,stimuli/bead_b.PNG,stimuli/bead_b.PNG,0,1,left
,,,,2023-10-10_15h07.44.365,Fish_Game,2023.1.3,MacIntel,60.0024001,,,,,,,,,,,,,9,,,,,,,,,,,,,,up,0.4639,,0,1.5,308.9825,0,8,8,8,1,stimuli/bead_y.PNG,stimuli/bead_b.PNG,stimuli/bead_g.PNG,stimuli/bead_b.PNG,stimuli/bead_b.PNG,0,1,left
,,,,2023-10-10_15h07.44.365,Fish_Game,2023.1.3,MacIntel,60.0024001,,,,,,,,,,,,,10,,,,,,,,,,,,,,left,0.7486,,1,0.5,310.7656,0,9,9,9,1,stimuli/bead_b.PNG,stimuli/bead_y.PNG,stimuli/bead_b.PNG,stimuli/bead_g.PNG,stimuli/bead_b.PNG,0,1,left
,,,,2023-10-10_15h07.44.365,Fish_Game,2023.1.3,MacIntel,60.0024001,,,,,,,,,,,,,11,,,,,,,,,,,,,,left,0.6501,,1,0.5,312.4468,0,10,10,10,1,stimuli/bead_b.PNG,stimuli/bead_b.PNG,stimuli/bead_y.PNG,stimuli/bead_b.PNG,stimuli/bead_g.PNG,0,1,left
,,,,2023-10-10_15h07.44.365,Fish_Game,2023.1.3,MacIntel,60.0024001,,,,,,,,,,,,,12,,,,,,,,,,,,,,up,0.4665,,1,1.5,314.9306,0,11,11,11,1,stimuli/bead_y.PNG,stimuli/bead_b.PNG,stimuli/bead_b.PNG,stimuli/bead_y.PNG,stimuli/bead_b.PNG,1,2,up
,,,,2023-10-10_15h07.44.365,Fish_Game,2023.1.3,MacIntel,60.0024001,,,,,,,,,,,,,13,,,,,,,,,,,,,,up,0.5837,,1,0.5,316.5293,0,12,12,12,1,stimuli/bead_y.PNG,stimuli/bead_y.PNG,stimuli/bead_b.PNG,stimuli/bead_b.PNG,stimuli/bead_y.PNG,1,2,up
,,,,2023-10-10_15h07.44.365,Fish_Game,2023.1.3,MacIntel,60.0024001,,,,,,,,,,,,,14,,,,,,,,,,,,,,up,0.3982,,1,0.5,317.9493,0,13,13,13,1,stimuli/bead_y.PNG,stimuli/bead_y.PNG,stimuli/bead_y.PNG,stimuli/bead_b.PNG,stimuli/bead_b.PNG,1,2,up
,,,,2023-10-10_15h07.44.365,Fish_Game,2023.1.3,MacIntel,60.0024001,,,,,,,,,,,,,15,,,,,,,,,,,,,,right,0.4981,,0,1.5,320.4803,0,14,14,14,1,stimuli/bead_g.PNG,stimuli/bead_y.PNG,stimuli/bead_y.PNG,stimuli/bead_y.PNG,stimuli/bead_b.PNG,1,2,up
,,,,2023-10-10_15h07.44.365,Fish_Game,2023.1.3,MacIntel,60.0024001,,,,,,,,,,,,,1,,,,,,,,,,,,4,1condition/mainTrials3.xlsx,up,3.4308,,1,1.5,330.9475,0,0,0,0,1,stimuli/bead_y.PNG,stimuli/blank.jpg,stimuli/blank.jpg,stimuli/blank.jpg,stimuli/blank.jpg,1,2,up
,,,,2023-10-10_15h07.44.365,Fish_Game,2023.1.3,MacIntel,60.0024001,,,,,,,,,,,,,2,,,,,,,,,,,,,,up,0.5183,,1,1.5,333.4965,0,1,1,1,1,stimuli/bead_y.PNG,stimuli/bead_y.PNG,stimuli/blank.jpg,stimuli/blank.jpg,stimuli/blank.jpg,1,2,up
,,,,2023-10-10_15h07.44.365,Fish_Game,2023.1.3,MacIntel,60.0024001,,,,,,,,,,,,,3,,,,,,,,,,,,,,left,0.5677,,0,0.5,335.0975,0,2,2,2,1,stimuli/bead_b.PNG,stimuli/bead_y.PNG,stimuli/bead_y.PNG,stimuli/blank.jpg,stimuli/blank.jpg,1,2,up
,,,,2023-10-10_15h07.44.365,Fish_Game,2023.1.3,MacIntel,60.0024001,,,,,,,,,,,,,4,,,,,,,,,,,,,,up,0.8331,,1,1,337.4633,0,3,3,3,1,stimuli/bead_y.PNG,stimuli/bead_b.PNG,stimuli/bead_y.PNG,stimuli/bead_y.PNG,stimuli/blank.jpg,1,2,up
,,,,2023-10-10_15h07.44.365,Fish_Game,2023.1.3,MacIntel,60.0024001,,,,,,,,,,,,,5,,,,,,,,,,,,,,up,0.6034,,1,1.5,340.0958,0,4,4,4,1,stimuli/bead_y.PNG,stimuli/bead_y.PNG,stimuli/bead_b.PNG,stimuli/bead_y.PNG,stimuli/bead_y.PNG,1,2,up
,,,,2023-10-10_15h07.44.365,Fish_Game,2023.1.3,MacIntel,60.0024001,,,,,,,,,,,,,6,,,,,,,,,,,,,,up,0.5676,,1,0.5,341.6974,0,5,5,5,1,stimuli/bead_y.PNG,stimuli/bead_y.PNG,stimuli/bead_y.PNG,stimuli/bead_b.PNG,stimuli/bead_y.PNG,1,2,up
,,,,2023-10-10_15h07.44.365,Fish_Game,2023.1.3,MacIntel,60.0024001,,,,,,,,,,,,,7,,,,,,,,,,,,,,left,0.6709,,0,0.5,343.3964,0,6,6,6,1,stimuli/bead_b.PNG,stimuli/bead_y.PNG,stimuli/bead_y.PNG,stimuli/bead_y.PNG,stimuli/bead_b.PNG,1,2,up
,,,,2023-10-10_15h07.44.365,Fish_Game,2023.1.3,MacIntel,60.0024001,,,,,,,,,,,,,8,,,,,,,,,,,,,,up,0.5677,,1,0.5,344.9974,0,7,7,7,1,stimuli/bead_y.PNG,stimuli/bead_b.PNG,stimuli/bead_y.PNG,stimuli/bead_y.PNG,stimuli/bead_y.PNG,1,2,up
,,,,2023-10-10_15h07.44.365,Fish_Game,2023.1.3,MacIntel,60.0024001,,,,,,,,,,,,,9,,,,,,,,,,,,,,up,0.4646,,1,0.5,346.479,0,8,8,8,1,stimuli/bead_y.PNG,stimuli/bead_y.PNG,stimuli/bead_b.PNG,stimuli/bead_y.PNG,stimuli/bead_y.PNG,1,2,up
,,,,2023-10-10_15h07.44.365,Fish_Game,2023.1.3,MacIntel,60.0024001,,,,,,,,,,,,,10,,,,,,,,,,,,,,right,0.5316,,0,1.5,349.0461,0,9,9,9,1,stimuli/bead_g.PNG,stimuli/bead_y.PNG,stimuli/bead_y.PNG,stimuli/bead_b.PNG,stimuli/bead_y.PNG,1,2,up
,,,,2023-10-10_15h07.44.365,Fish_Game,2023.1.3,MacIntel,60.0024001,,,,,,,,,,,,,11,,,,,,,,,,,,,,up,0.7324,,1,1,351.3133,0,10,10,10,1,stimuli/bead_y.PNG,stimuli/bead_g.PNG,stimuli/bead_y.PNG,stimuli/bead_y.PNG,stimuli/bead_b.PNG,1,2,up
,,,,2023-10-10_15h07.44.365,Fish_Game,2023.1.3,MacIntel,60.0024001,,,,,,,,,,,,,12,,,,,,,,,,,,,,right,0.8651,,0,1.5,354.1973,0,11,11,11,1,stimuli/bead_g.PNG,stimuli/bead_y.PNG,stimuli/bead_g.PNG,stimuli/bead_y.PNG,stimuli/bead_y.PNG,1,2,up
,,,,2023-10-10_15h07.44.365,Fish_Game,2023.1.3,MacIntel,60.0024001,,,,,,,,,,,,,13,,,,,,,,,,,,,,up,0.7679,,1,1.5,356.9948,0,12,12,12,1,stimuli/bead_y.PNG,stimuli/bead_g.PNG,stimuli/bead_y.PNG,stimuli/bead_g.PNG,stimuli/bead_y.PNG,1,2,up
,,,,2023-10-10_15h07.44.365,Fish_Game,2023.1.3,MacIntel,60.0024001,,,,,,,,,,,,,14,,,,,,,,,,,,,,up,0.6662,,1,1.5,359.6797,0,13,13,13,1,stimuli/bead_y.PNG,stimuli/bead_y.PNG,stimuli/bead_g.PNG,stimuli/bead_y.PNG,stimuli/bead_g.PNG,1,2,up
,,,,2023-10-10_15h07.44.365,Fish_Game,2023.1.3,MacIntel,60.0024001,,,,,,,,,,,,,15,,,,,,,,,,,,,,up,0.6508,,1,1.5,362.3639,0,14,14,14,1,stimuli/bead_y.PNG,stimuli/bead_y.PNG,stimuli/bead_y.PNG,stimuli/bead_g.PNG,stimuli/bead_y.PNG,1,2,up
,,,,2023-10-10_15h07.44.365,Fish_Game,2023.1.3,MacIntel,60.0024001,,,,,,,,,,,,,1,,,,,,,,,,,,5,1condition/mainTrials1.xlsx,right,0.6497,,1,1,369.5456,0,0,0,0,1,stimuli/bead_g.PNG,stimuli/blank.jpg,stimuli/blank.jpg,stimuli/blank.jpg,stimuli/blank.jpg,2,3,right
,,,,2023-10-10_15h07.44.365,Fish_Game,2023.1.3,MacIntel,60.0024001,,,,,,,,,,,,,2,,,,,,,,,,,,,,up,0.7846,,0,1.5,372.346,0,1,1,1,1,stimuli/bead_y.PNG,stimuli/bead_g.PNG,stimuli/blank.jpg,stimuli/blank.jpg,stimuli/blank.jpg,2,3,right
,,,,2023-10-10_15h07.44.365,Fish_Game,2023.1.3,MacIntel,60.0024001,,,,,,,,,,,,,3,,,,,,,,,,,,,,right,0.6335,,1,1,374.5132,0,2,2,2,1,stimuli/bead_g.PNG,stimuli/bead_y.PNG,stimuli/bead_g.PNG,stimuli/blank.jpg,stimuli/blank.jpg,2,3,right
,,,,2023-10-10_15h07.44.365,Fish_Game,2023.1.3,MacIntel,60.0024001,,,,,,,,,,,,,4,,,,,,,,,,,,,,left,0.7174,,0,1.5,377.2457,0,3,3,3,1,stimuli/bead_b.PNG,stimuli/bead_g.PNG,stimuli/bead_y.PNG,stimuli/bead_g.PNG,stimuli/blank.jpg,2,3,right
,,,,2023-10-10_15h07.44.365,Fish_Game,2023.1.3,MacIntel,60.0024001,,,,,,,,,,,,,5,,,,,,,,,,,,,,right,0.5361,,1,1,379.2964,0,4,4,4,1,stimuli/bead_g.PNG,stimuli/bead_b.PNG,stimuli/bead_g.PNG,stimuli/bead_y.PNG,stimuli/bead_g.PNG,2,3,right
,,,,2023-10-10_15h07.44.365,Fish_Game,2023.1.3,MacIntel,60.0024001,,,,,,,,,,,,,6,,,,,,,,,,,,,,right,0.6179,,1,1.5,381.9463,0,5,5,5,1,stimuli/bead_g.PNG,stimuli/bead_g.PNG,stimuli/bead_b.PNG,stimuli/bead_g.PNG,stimuli/bead_y.PNG,2,3,right
,,,,2023-10-10_15h07.44.365,Fish_Game,2023.1.3,MacIntel,60.0024001,,,,,,,,,,,,,7,,,,,,,,,,,,,,right,0.5825,,1,0.5,383.5637,0,6,6,6,1,stimuli/bead_g.PNG,stimuli/bead_g.PNG,stimuli/bead_g.PNG,stimuli/bead_b.PNG,stimuli/bead_g.PNG,2,3,right
,,,,2023-10-10_15h07.44.365,Fish_Game,2023.1.3,MacIntel,60.0024001,,,,,,,,,,,,,8,,,,,,,,,,,,,,right,0.4207,,1,1,385.5126,0,7,7,7,1,stimuli/bead_g.PNG,stimuli/bead_g.PNG,stimuli/bead_g.PNG,stimuli/bead_g.PNG,stimuli/bead_b.PNG,2,3,right
,,,,2023-10-10_15h07.44.365,Fish_Game,2023.1.3,MacIntel,60.0024001,,,,,,,,,,,,,9,,,,,,,,,,,,,,left,0.8649,,0,1.5,388.3964,0,8,8,8,1,stimuli/bead_b.PNG,stimuli/bead_g.PNG,stimuli/bead_g.PNG,stimuli/bead_g.PNG,stimuli/bead_g.PNG,2,3,right
,,,,2023-10-10_15h07.44.365,Fish_Game,2023.1.3,MacIntel,60.0024001,,,,,,,,,,,,,10,,,,,,,,,,,,,,right,0.6197,,1,1,390.5445,0,9,9,9,1,stimuli/bead_g.PNG,stimuli/bead_b.PNG,stimuli/bead_g.PNG,stimuli/bead_g.PNG,stimuli/bead_g.PNG,2,3,right
,,,,2023-10-10_15h07.44.365,Fish_Game,2023.1.3,MacIntel,60.0024001,,,,,,,,,,,,,11,,,,,,,,,,,,,,right,0.4851,,1,1,392.5618,0,10,10,10,1,stimuli/bead_g.PNG,stimuli/bead_g.PNG,stimuli/bead_b.PNG,stimuli/bead_g.PNG,stimuli/bead_g.PNG,2,3,right
,,,,2023-10-10_15h07.44.365,Fish_Game,2023.1.3,MacIntel,60.0024001,,,,,,,,,,,,,12,,,,,,,,,,,,,,right,0.3985,,1,1.5,394.9946,0,11,11,11,1,stimuli/bead_g.PNG,stimuli/bead_g.PNG,stimuli/bead_g.PNG,stimuli/bead_b.PNG,stimuli/bead_g.PNG,2,3,right
,,,,2023-10-10_15h07.44.365,Fish_Game,2023.1.3,MacIntel,60.0024001,,,,,,,,,,,,,13,,,,,,,,,,,,,,left,0.6826,,1,1,397.1957,0,12,12,12,1,stimuli/bead_b.PNG,stimuli/bead_g.PNG,stimuli/bead_g.PNG,stimuli/bead_g.PNG,stimuli/bead_b.PNG,0,1,left
,,,,2023-10-10_15h07.44.365,Fish_Game,2023.1.3,MacIntel,60.0024001,,,,,,,,,,,,,14,,,,,,,,,,,,,,left,0.6345,,1,1,399.3612,0,13,13,13,1,stimuli/bead_b.PNG,stimuli/bead_b.PNG,stimuli/bead_g.PNG,stimuli/bead_g.PNG,stimuli/bead_g.PNG,0,1,left
,,,,2023-10-10_15h07.44.365,Fish_Game,2023.1.3,MacIntel,60.0024001,,,,,,,,,,,,,15,,,,,,,,,,,,,,left,0.5343,,1,1,401.428,0,14,14,14,1,stimuli/bead_b.PNG,stimuli/bead_b.PNG,stimuli/bead_b.PNG,stimuli/bead_g.PNG,stimuli/bead_g.PNG,0,1,left
,,,,2023-10-10_15h07.44.365,Fish_Game,2023.1.3,MacIntel,60.0024001,,,,,,,,,,,,,1,,,,,,,,,,,,6,1condition/mainTrials4.xlsx,right,1.1469,,1,0.5,408.6145,0,0,0,0,1,stimuli/bead_g.PNG,stimuli/blank.jpg,stimuli/blank.jpg,stimuli/blank.jpg,stimuli/blank.jpg,2,3,right
,,,,2023-10-10_15h07.44.365,Fish_Game,2023.1.3,MacIntel,60.0024001,,,,,,,,,,,,,2,,,,,,,,,,,,,,right,0.4509,,1,0.5,410.0794,0,1,1,1,1,stimuli/bead_g.PNG,stimuli/bead_g.PNG,stimuli/blank.jpg,stimuli/blank.jpg,stimuli/blank.jpg,2,3,right
,,,,2023-10-10_15h07.44.365,Fish_Game,2023.1.3,MacIntel,60.0024001,,,,,,,,,,,,,3,,,,,,,,,,,,,,right,0.0649,,1,1,411.6789,0,2,2,2,1,stimuli/bead_b.PNG,stimuli/bead_g.PNG,stimuli/bead_g.PNG,stimuli/blank.jpg,stimuli/blank.jpg,2,3,right
,,,,2023-10-10_15h07.44.365,Fish_Game,2023.1.3,MacIntel,60.0024001,,,,,,,,,,,,,4,,,,,,,,,,,,,,right,0.6156,,1,1.5,414.3288,0,3,3,3,1,stimuli/bead_g.PNG,stimuli/bead_b.PNG,stimuli/bead_g.PNG,stimuli/bead_g.PNG,stimuli/blank.jpg,2,3,right
,,,,2023-10-10_15h07.44.365,Fish_Game,2023.1.3,MacIntel,60.0024001,,,,,,,,,,,,,5,,,,,,,,,,,,,,right,0.7989,,1,1.5,417.1455,0,4,4,4,1,stimuli/bead_g.PNG,stimuli/bead_g.PNG,stimuli/bead_b.PNG,stimuli/bead_g.PNG,stimuli/bead_g.PNG,2,3,right
,,,,2023-10-10_15h07.44.365,Fish_Game,2023.1.3,MacIntel,60.0024001,,,,,,,,,,,,,6,,,,,,,,,,,,,,up,0.9511,,0,0.5,419.1286,0,5,5,5,1,stimuli/bead_y.PNG,stimuli/bead_g.PNG,stimuli/bead_g.PNG,stimuli/bead_b.PNG,stimuli/bead_g.PNG,2,3,right
,,,,2023-10-10_15h07.44.365,Fish_Game,2023.1.3,MacIntel,60.0024001,,,,,,,,,,,,,7,,,,,,,,,,,,,,right,0.632,,1,1.5,421.7956,0,6,6,6,1,stimuli/bead_g.PNG,stimuli/bead_y.PNG,stimuli/bead_g.PNG,stimuli/bead_g.PNG,stimuli/bead_b.PNG,2,3,right
,,,,2023-10-10_15h07.44.365,Fish_Game,2023.1.3,MacIntel,60.0024001,,,,,,,,,,,,,8,,,,,,,,,,,,,,up,0.7666,,1,1.5,424.5944,0,7,7,7,1,stimuli/bead_y.PNG,stimuli/bead_g.PNG,stimuli/bead_y.PNG,stimuli/bead_g.PNG,stimuli/bead_g.PNG,1,2,up
,,,,2023-10-10_15h07.44.365,Fish_Game,2023.1.3,MacIntel,60.0024001,,,,,,,,,,,,,9,,,,,,,,,,,,,,up,1.0485,,1,1.5,427.6618,0,8,8,8,1,stimuli/bead_y.PNG,stimuli/bead_y.PNG,stimuli/bead_g.PNG,stimuli/bead_y.PNG,stimuli/bead_g.PNG,1,2,up
,,,,2023-10-10_15h07.44.365,Fish_Game,2023.1.3,MacIntel,60.0024001,,,,,,,,,,,,,10,,,,,,,,,,,,,,right,0.5967,,0,1,429.78,0,9,9,9,1,stimuli/bead_g.PNG,stimuli/bead_y.PNG,stimuli/bead_y.PNG,stimuli/bead_g.PNG,stimuli/bead_y.PNG,1,2,up
,,,,2023-10-10_15h07.44.365,Fish_Game,2023.1.3,MacIntel,60.0024001,,,,,,,,,,,,,11,,,,,,,,,,,,,,up,0.8142,,1,1.5,432.6114,0,10,10,10,1,stimuli/bead_y.PNG,stimuli/bead_g.PNG,stimuli/bead_y.PNG,stimuli/bead_y.PNG,stimuli/bead_g.PNG,1,2,up
,,,,2023-10-10_15h07.44.365,Fish_Game,2023.1.3,MacIntel,60.0024001,,,,,,,,,,,,,12,,,,,,,,,,,,,,up,0.5537,,1,1.5,435.178,0,11,11,11,1,stimuli/bead_y.PNG,stimuli/bead_y.PNG,stimuli/bead_g.PNG,stimuli/bead_y.PNG,stimuli/bead_y.PNG,1,2,up
,,,,2023-10-10_15h07.44.365,Fish_Game,2023.1.3,MacIntel,60.0024001,,,,,,,,,,,,,13,,,,,,,,,,,,,,left,0.7309,,0,1.5,437.9288,0,12,12,12,1,stimuli/bead_b.PNG,stimuli/bead_y.PNG,stimuli/bead_y.PNG,stimuli/bead_g.PNG,stimuli/bead_y.PNG,1,2,up
,,,,2023-10-10_15h07.44.365,Fish_Game,2023.1.3,MacIntel,60.0024001,,,,,,,,,,,,,14,,,,,,,,,,,,,,up,0.7145,,1,1,440.1623,0,13,13,13,1,stimuli/bead_y.PNG,stimuli/bead_b.PNG,stimuli/bead_y.PNG,stimuli/bead_y.PNG,stimuli/bead_g.PNG,1,2,up
,,,,2023-10-10_15h07.44.365,Fish_Game,2023.1.3,MacIntel,60.0024001,,,,,,,,,,,,,15,,,,,,,,,,,,,,up,0.5142,,1,1.5,442.6937,0,14,14,14,1,stimuli/bead_y.PNG,stimuli/bead_y.PNG,stimuli/bead_b.PNG,stimuli/bead_y.PNG,stimuli/bead_y.PNG,1,2,up
,,,,2023-10-10_15h07.44.365,Fish_Game,2023.1.3,MacIntel,60.0024001,,,,,,,,,,,,,1,,,,,,,,,,,,7,1condition/mainTrials5.xlsx,left,0.6348,,1,0.5,449.3613,0,0,0,0,1,stimuli/bead_b.PNG,stimuli/blank.jpg,stimuli/blank.jpg,stimuli/blank.jpg,stimuli/blank.jpg,0,1,left
,,,,2023-10-10_15h07.44.365,Fish_Game,2023.1.3,MacIntel,60.0024001,,,,,,,,,,,,,2,,,,,,,,,,,,,,left,0.5321,,1,1,451.4277,0,1,1,1,1,stimuli/bead_b.PNG,stimuli/bead_b.PNG,stimuli/blank.jpg,stimuli/blank.jpg,stimuli/blank.jpg,0,1,left
,,,,2023-10-10_15h07.44.365,Fish_Game,2023.1.3,MacIntel,60.0024001,,,,,,,,,,,,,3,,,,,,,,,,,,,,up,0.652,,0,0.5,453.1118,0,2,2,2,1,stimuli/bead_y.PNG,stimuli/bead_b.PNG,stimuli/bead_b.PNG,stimuli/blank.jpg,stimuli/blank.jpg,0,1,left
,,,,2023-10-10_15h07.44.365,Fish_Game,2023.1.3,MacIntel,60.0024001,,,,,,,,,,,,,4,,,,,,,,,,,,,,left,0.745,,1,1.5,455.8789,0,3,3,3,1,stimuli/bead_b.PNG,stimuli/bead_y.PNG,stimuli/bead_b.PNG,stimuli/bead_b.PNG,stimuli/blank.jpg,0,1,left
,,,,2023-10-10_15h07.44.365,Fish_Game,2023.1.3,MacIntel,60.0024001,,,,,,,,,,,,,5,,,,,,,,,,,,,,left,0.4293,,1,1.5,458.327,0,4,4,4,1,stimuli/bead_b.PNG,stimuli/bead_b.PNG,stimuli/bead_y.PNG,stimuli/bead_b.PNG,stimuli/bead_b.PNG,0,1,left
,,,,2023-10-10_15h07.44.365,Fish_Game,2023.1.3,MacIntel,60.0024001,,,,,,,,,,,,,6,,,,,,,,,,,,,,right,0.4024,,1,1.5,460.7637,0,5,5,5,1,stimuli/bead_g.PNG,stimuli/bead_b.PNG,stimuli/bead_b.PNG,stimuli/bead_y.PNG,stimuli/bead_b.PNG,2,3,right
,,,,2023-10-10_15h07.44.365,Fish_Game,2023.1.3,MacIntel,60.0024001,,,,,,,,,,,,,7,,,,,,,,,,,,,,right,0.3819,,1,0.5,462.1785,0,6,6,6,1,stimuli/bead_g.PNG,stimuli/bead_g.PNG,stimuli/bead_b.PNG,stimuli/bead_b.PNG,stimuli/bead_y.PNG,2,2,right
,,,,2023-10-10_15h07.44.365,Fish_Game,2023.1.3,MacIntel,60.0024001,,,,,,,,,,,,,8,,,,,,,,,,,,,,left,0.9859,,0,1.5,465.18,0,7,7,7,1,stimuli/bead_b.PNG,stimuli/bead_g.PNG,stimuli/bead_g.PNG,stimuli/bead_b.PNG,stimuli/bead_b.PNG,2,2,right
,,,,2023-10-10_15h07.44.365,Fish_Game,2023.1.3,MacIntel,60.0024001,,,,,,,,,,,,,9,,,,,,,,,,,,,,right,0.5162,,1,1,467.2275,0,8,8,8,1,stimuli/bead_g.PNG,stimuli/bead_b.PNG,stimuli/bead_g.PNG,stimuli/bead_g.PNG,stimuli/bead_b.PNG,2,2,right
,,,,2023-10-10_15h07.44.365,Fish_Game,2023.1.3,MacIntel,60.0024001,,,,,,,,,,,,,10,,,,,,,,,,,,,,left,1.3016,,0,1.5,470.5616,0,9,9,9,1,stimuli/bead_b.PNG,stimuli/bead_g.PNG,stimuli/bead_b.PNG,stimuli/bead_g.PNG,stimuli/bead_g.PNG,2,2,right
,,,,2023-10-10_15h07.44.365,Fish_Game,2023.1.3,MacIntel,60.0024001,,,,,,,,,,,,,11,,,,,,,,,,,,,,up,1.649,,0,0.5,473.244,0,10,10,10,1,stimuli/bead_g.PNG,stimuli/bead_b.PNG,stimuli/bead_g.PNG,stimuli/bead_b.PNG,stimuli/bead_g.PNG,2,2,right
,,,,2023-10-10_15h07.44.365,Fish_Game,2023.1.3,MacIntel,60.0024001,,,,,,,,,,,,,12,,,,,,,,,,,,,,right,0.9357,,1,1.5,476.2105,0,11,11,11,1,stimuli/bead_g.PNG,stimuli/bead_g.PNG,stimuli/bead_b.PNG,stimuli/bead_g.PNG,stimuli/bead_b.PNG,2,2,right
,,,,2023-10-10_15h07.44.365,Fish_Game,2023.1.3,MacIntel,60.0024001,,,,,,,,,,,,,13,,,,,,,,,,,,,,right,0.4208,,1,1.5,478.6439,0,12,12,12,1,stimuli/bead_g.PNG,stimuli/bead_g.PNG,stimuli/bead_g.PNG,stimuli/bead_b.PNG,stimuli/bead_g.PNG,2,3,right
,,,,2023-10-10_15h07.44.365,Fish_Game,2023.1.3,MacIntel,60.0024001,,,,,,,,,,,,,14,,,,,,,,,,,,,,up,0.8831,,0,1,481.0611,0,13,13,13,1,stimuli/bead_y.PNG,stimuli/bead_g.PNG,stimuli/bead_g.PNG,stimuli/bead_g.PNG,stimuli/bead_b.PNG,2,3,right
,,,,2023-10-10_15h07.44.365,Fish_Game,2023.1.3,MacIntel,60.0024001,,,,,,,,,,,,,15,,,,,,,,,,,,,,right,0.5991,,1,1.5,483.6766,0,14,14,14,1,stimuli/bead_g.PNG,stimuli/bead_y.PNG,stimuli/bead_g.PNG,stimuli/bead_g.PNG,stimuli/bead_g.PNG,2,3,right
,,,,2023-10-10_15h07.44.365,Fish_Game,2023.1.3,MacIntel,60.0024001,,,,,,,,,,,,,1,,,,,,,,,,,,8,1condition/mainTrials7.xlsx,right,0.8489,,0,1.5,491.5621,0,0,0,0,1,stimuli/bead_y.PNG,stimuli/blank.jpg,stimuli/blank.jpg,stimuli/blank.jpg,stimuli/blank.jpg,1,2,up
,,,,2023-10-10_15h07.44.365,Fish_Game,2023.1.3,MacIntel,60.0024001,,,,,,,,,,,,,2,,,,,,,,,,,,,,up,0.6559,,1,1.5,494.244,0,1,1,1,1,stimuli/bead_y.PNG,stimuli/bead_y.PNG,stimuli/blank.jpg,stimuli/blank.jpg,stimuli/blank.jpg,1,2,up
,,,,2023-10-10_15h07.44.365,Fish_Game,2023.1.3,MacIntel,60.0024001,,,,,,,,,,,,,3,,,,,,,,,,,,,,right,0.7205,,0,0.5,495.9945,0,2,2,2,1,stimuli/bead_g.PNG,stimuli/bead_y.PNG,stimuli/bead_y.PNG,stimuli/blank.jpg,stimuli/blank.jpg,1,2,up
,,,,2023-10-10_15h07.44.365,Fish_Game,2023.1.3,MacIntel,60.0024001,,,,,,,,,,,,,4,,,,,,,,,,,,,,up,0.5893,,1,1,498.0944,0,3,3,3,1,stimuli/bead_y.PNG,stimuli/bead_g.PNG,stimuli/bead_y.PNG,stimuli/bead_y.PNG,stimuli/blank.jpg,1,2,up
,,,,2023-10-10_15h07.44.365,Fish_Game,2023.1.3,MacIntel,60.0024001,,,,,,,,,,,,,5,,,,,,,,,,,,,,up,0.5334,,1,1.5,500.6441,0,4,4,4,1,stimuli/bead_y.PNG,stimuli/bead_y.PNG,stimuli/bead_g.PNG,stimuli/bead_y.PNG,stimuli/bead_y.PNG,1,2,up
,,,,2023-10-10_15h07.44.365,Fish_Game,2023.1.3,MacIntel,60.0024001,,,,,,,,,,,,,6,,,,,,,,,,,,,,up,0.5001,,1,1,502.6605,0,5,5,5,1,stimuli/bead_y.PNG,stimuli/bead_y.PNG,stimuli/bead_y.PNG,stimuli/bead_g.PNG,stimuli/bead_y.PNG,1,2,up
,,,,2023-10-10_15h07.44.365,Fish_Game,2023.1.3,MacIntel,60.0024001,,,,,,,,,,,,,7,,,,,,,,,,,,,,left,0.6002,,0,0.5,504.2942,0,6,6,6,1,stimuli/bead_b.PNG,stimuli/bead_y.PNG,stimuli/bead_y.PNG,stimuli/bead_y.PNG,stimuli/bead_g.PNG,1,2,up
,,,,2023-10-10_15h07.44.365,Fish_Game,2023.1.3,MacIntel,60.0024001,,,,,,,,,,,,,8,,,,,,,,,,,,,,up,0.6021,,1,1,506.4265,0,7,7,7,1,stimuli/bead_y.PNG,stimuli/bead_b.PNG,stimuli/bead_y.PNG,stimuli/bead_y.PNG,stimuli/bead_y.PNG,1,2,up
,,,,2023-10-10_15h07.44.365,Fish_Game,2023.1.3,MacIntel,60.0024001,,,,,,,,,,,,,9,,,,,,,,,,,,,,up,0.5347,,0,1,508.4802,0,8,8,8,1,stimuli/bead_y.PNG,stimuli/bead_y.PNG,stimuli/bead_b.PNG,stimuli/bead_y.PNG,stimuli/bead_y.PNG,1,2,right
,,,,2023-10-10_15h07.44.365,Fish_Game,2023.1.3,MacIntel,60.0024001,,,,,,,,,,,,,10,,,,,,,,,,,,,,right,0.6557,,1,0.5,510.1602,0,9,9,9,1,stimuli/bead_g.PNG,stimuli/bead_y.PNG,stimuli/bead_y.PNG,stimuli/bead_b.PNG,stimuli/bead_y.PNG,2,3,right
,,,,2023-10-10_15h07.44.365,Fish_Game,2023.1.3,MacIntel,60.0024001,,,,,,,,,,,,,11,,,,,,,,,,,,,,right,0.5325,,1,1,512.2095,0,10,10,10,1,stimuli/bead_g.PNG,stimuli/bead_g.PNG,stimuli/bead_y.PNG,stimuli/bead_y.PNG,stimuli/bead_b.PNG,2,3,right
,,,,2023-10-10_15h07.44.365,Fish_Game,2023.1.3,MacIntel,60.0024001,,,,,,,,,,,,,12,,,,,,,,,,,,,,up,0.7356,,0,1,514.4771,0,11,11,11,1,stimuli/bead_y.PNG,stimuli/bead_g.PNG,stimuli/bead_g.PNG,stimuli/bead_y.PNG,stimuli/bead_y.PNG,2,3,right
,,,,2023-10-10_15h07.44.365,Fish_Game,2023.1.3,MacIntel,60.0024001,,,,,,,,,,,,,13,,,,,,,,,,,,,,right,0.6006,,1,1.5,517.0943,0,12,12,12,1,stimuli/bead_g.PNG,stimuli/bead_y.PNG,stimuli/bead_g.PNG,stimuli/bead_g.PNG,stimuli/bead_y.PNG,2,3,right
,,,,2023-10-10_15h07.44.365,Fish_Game,2023.1.3,MacIntel,60.0024001,,,,,,,,,,,,,14,,,,,,,,,,,,,,right,0.5489,,1,1.5,519.6608,0,13,13,13,1,stimuli/bead_g.PNG,stimuli/bead_g.PNG,stimuli/bead_y.PNG,stimuli/bead_g.PNG,stimuli/bead_g.PNG,2,3,right
,,,,2023-10-10_15h07.44.365,Fish_Game,2023.1.3,MacIntel,60.0024001,,,,,,,,,,,,,15,,,,,,,,,,,,,,right,0.6501,,1,0.5,521.3438,0,14,14,14,1,stimuli/bead_g.PNG,stimuli/bead_g.PNG,stimuli/bead_g.PNG,stimuli/bead_y.PNG,stimuli/bead_g.PNG,2,3,right
,,,,2023-10-10_15h07.44.365,Fish_Game,2023.1.3,MacIntel,60.0024001,,,,,,,,,,,,,1,,,,,,,,,,,,9,1condition/mainTrials9.xlsx,right,0.7474,,1,1.5,529.1265,0,0,0,0,1,stimuli/bead_g.PNG,stimuli/blank.jpg,stimuli/blank.jpg,stimuli/blank.jpg,stimuli/blank.jpg,2,3,right
,,,,2023-10-10_15h07.44.365,Fish_Game,2023.1.3,MacIntel,60.0024001,,,,,,,,,,,,,2,,,,,,,,,,,,,,right,0.584,,1,1.5,531.7273,0,1,1,1,1,stimuli/bead_g.PNG,stimuli/bead_g.PNG,stimuli/blank.jpg,stimuli/blank.jpg,stimuli/blank.jpg,2,3,right
,,,,2023-10-10_15h07.44.365,Fish_Game,2023.1.3,MacIntel,60.0024001,,,,,,,,,,,,,3,,,,,,,,,,,,,,left,0.6981,,0,1.5,534.4602,0,2,2,2,1,stimuli/bead_b.PNG,stimuli/bead_g.PNG,stimuli/bead_g.PNG,stimuli/blank.jpg,stimuli/blank.jpg,2,3,right
,,,,2023-10-10_15h07.44.365,Fish_Game,2023.1.3,MacIntel,60.0024001,,,,,,,,,,,,,4,,,,,,,,,,,,,,right,1.0807,,1,0.5,536.5773,0,3,3,3,1,stimuli/bead_g.PNG,stimuli/bead_b.PNG,stimuli/bead_g.PNG,stimuli/bead_g.PNG,stimuli/blank.jpg,2,3,right
,,,,2023-10-10_15h07.44.365,Fish_Game,2023.1.3,MacIntel,60.0024001,,,,,,,,,,,,,5,,,,,,,,,,,,,,right,0.5656,,1,0.5,538.1771,0,4,4,4,1,stimuli/bead_g.PNG,stimuli/bead_g.PNG,stimuli/bead_b.PNG,stimuli/bead_g.PNG,stimuli/bead_g.PNG,2,3,right
,,,,2023-10-10_15h07.44.365,Fish_Game,2023.1.3,MacIntel,60.0024001,,,,,,,,,,,,,6,,,,,,,,,,,,,,left,0.5798,,0,0.5,539.776,0,5,5,5,1,stimuli/bead_b.PNG,stimuli/bead_g.PNG,stimuli/bead_g.PNG,stimuli/bead_b.PNG,stimuli/bead_g.PNG,2,3,right
,,,,2023-10-10_15h07.44.365,Fish_Game,2023.1.3,MacIntel,60.0024001,,,,,,,,,,,,,7,,,,,,,,,,,,,,right,0.6461,,1,1,541.944,0,6,6,6,1,stimuli/bead_g.PNG,stimuli/bead_b.PNG,stimuli/bead_g.PNG,stimuli/bead_g.PNG,stimuli/bead_b.PNG,2,3,right
,,,,2023-10-10_15h07.44.365,Fish_Game,2023.1.3,MacIntel,60.0024001,,,,,,,,,,,,,8,,,,,,,,,,,,,,right,0.7032,,1,0.5,543.6764,0,7,7,7,1,stimuli/bead_g.PNG,stimuli/bead_g.PNG,stimuli/bead_b.PNG,stimuli/bead_g.PNG,stimuli/bead_g.PNG,2,3,right
,,,,2023-10-10_15h07.44.365,Fish_Game,2023.1.3,MacIntel,60.0024001,,,,,,,,,,,,,9,,,,,,,,,,,,,,left,0.5664,,1,1,545.761,0,8,8,8,1,stimuli/bead_b.PNG,stimuli/bead_g.PNG,stimuli/bead_g.PNG,stimuli/bead_b.PNG,stimuli/bead_g.PNG,0,1,left
,,,,2023-10-10_15h07.44.365,Fish_Game,2023.1.3,MacIntel,60.0024001,,,,,,,,,,,,,10,,,,,,,,,,,,,,up,1.4483,,0,0.5,548.2445,0,9,9,9,1,stimuli/bead_y.PNG,stimuli/bead_b.PNG,stimuli/bead_g.PNG,stimuli/bead_g.PNG,stimuli/bead_b.PNG,0,1,left
,,,,2023-10-10_15h07.44.365,Fish_Game,2023.1.3,MacIntel,60.0024001,,,,,,,,,,,,,11,,,,,,,,,,,,,,left,1.2001,,1,1.5,551.4763,0,10,10,10,1,stimuli/bead_b.PNG,stimuli/bead_y.PNG,stimuli/bead_b.PNG,stimuli/bead_g.PNG,stimuli/bead_g.PNG,0,1,left
,,,,2023-10-10_15h07.44.365,Fish_Game,2023.1.3,MacIntel,60.0024001,,,,,,,,,,,,,12,,,,,,,,,,,,,,left,0.599,,1,1.5,554.0949,0,11,11,11,1,stimuli/bead_b.PNG,stimuli/bead_b.PNG,stimuli/bead_y.PNG,stimuli/bead_b.PNG,stimuli/bead_g.PNG,0,1,left
,,,,2023-10-10_15h07.44.365,Fish_Game,2023.1.3,MacIntel,60.0024001,,,,,,,,,,,,,13,,,,,,,,,,,,,,left,0.4645,,1,1,556.0763,0,12,12,12,1,stimuli/bead_b.PNG,stimuli/bead_b.PNG,stimuli/bead_b.PNG,stimuli/bead_y.PNG,stimuli/bead_b.PNG,0,1,left
,,,,2023-10-10_15h07.44.365,Fish_Game,2023.1.3,MacIntel,60.0024001,,,,,,,,,,,,,14,,,,,,,,,,,,,,right,0.483,,0,1.5,558.5768,0,13,13,13,1,stimuli/bead_g.PNG,stimuli/bead_b.PNG,stimuli/bead_b.PNG,stimuli/bead_b.PNG,stimuli/bead_y.PNG,0,1,left
,,,,2023-10-10_15h07.44.365,Fish_Game,2023.1.3,MacIntel,60.0024001,,,,,,,,,,,,,15,,,,,,,,,,,,,,left,0.9293,,1,0.5,560.5417,0,14,14,14,1,stimuli/bead_b.PNG,stimuli/bead_g.PNG,stimuli/bead_b.PNG,stimuli/bead_b.PNG,stimuli/bead_b.PNG,0,1,left
,,,,2023-10-10_15h07.44.365,Fish_Game,2023.1.3,MacIntel,60.0024001,,,,,,,,,,,,,1,,,,,,,,,,,,10,1condition/mainTrials6.xlsx,left,0.6667,,0,1,567.7458,0,0,0,0,1,stimuli/bead_b.PNG,stimuli/blank.jpg,stimuli/blank.jpg,stimuli/blank.jpg,stimuli/blank.jpg,1,2,up
,,,,2023-10-10_15h07.44.365,Fish_Game,2023.1.3,MacIntel,60.0024001,,,,,,,,,,,,,2,,,,,,,,,,,,,,up,0.9329,,1,0.5,569.7097,0,1,1,1,1,stimuli/bead_y.PNG,stimuli/bead_b.PNG,stimuli/blank.jpg,stimuli/blank.jpg,stimuli/blank.jpg,1,2,up
,,,,2023-10-10_15h07.44.365,Fish_Game,2023.1.3,MacIntel,60.0024001,,,,,,,,,,,,,3,,,,,,,,,,,,,,up,0.6,,1,1.5,572.3424,0,2,2,2,1,stimuli/bead_y.PNG,stimuli/bead_y.PNG,stimuli/bead_b.PNG,stimuli/blank.jpg,stimuli/blank.jpg,1,2,up
,,,,2023-10-10_15h07.44.365,Fish_Game,2023.1.3,MacIntel,60.0024001,,,,,,,,,,,,,4,,,,,,,,,,,,,,up,0.4831,,1,0.5,573.859,0,3,3,3,1,stimuli/bead_y.PNG,stimuli/bead_y.PNG,stimuli/bead_y.PNG,stimuli/bead_b.PNG,stimuli/blank.jpg,1,2,up
,,,,2023-10-10_15h07.44.365,Fish_Game,2023.1.3,MacIntel,60.0024001,,,,,,,,,,,,,5,,,,,,,,,,,,,,right,0.6493,,1,1.5,576.5453,0,4,4,4,1,stimuli/bead_g.PNG,stimuli/bead_y.PNG,stimuli/bead_y.PNG,stimuli/bead_y.PNG,stimuli/bead_b.PNG,2,3,right
,,,,2023-10-10_15h07.44.365,Fish_Game,2023.1.3,MacIntel,60.0024001,,,,,,,,,,,,,6,,,,,,,,,,,,,,right,0.8199,,1,1,578.8926,0,5,5,5,1,stimuli/bead_g.PNG,stimuli/bead_g.PNG,stimuli/bead_y.PNG,stimuli/bead_y.PNG,stimuli/bead_y.PNG,2,3,right
,,,,2023-10-10_15h07.44.365,Fish_Game,2023.1.3,MacIntel,60.0024001,,,,,,,,,,,,,7,,,,,,,,,,,,,,up,0.8021,,0,1.5,581.7098,0,6,6,6,1,stimuli/bead_y.PNG,stimuli/bead_g.PNG,stimuli/bead_g.PNG,stimuli/bead_y.PNG,stimuli/bead_y.PNG,2,3,right
,,,,2023-10-10_15h07.44.365,Fish_Game,2023.1.3,MacIntel,60.0024001,,,,,,,,,,,,,8,,,,,,,,,,,,,,right,0.8645,,1,1,584.0919,0,7,7,7,1,stimuli/bead_g.PNG,stimuli/bead_y.PNG,stimuli/bead_g.PNG,stimuli/bead_g.PNG,stimuli/bead_y.PNG,2,3,right
,,,,2023-10-10_15h07.44.365,Fish_Game,2023.1.3,MacIntel,60.0024001,,,,,,,,,,,,,9,,,,,,,,,,,,,,right,3.082,,1,0.5,588.2095,0,8,8,8,1,stimuli/bead_g.PNG,stimuli/bead_g.PNG,stimuli/bead_y.PNG,stimuli/bead_g.PNG,stimuli/bead_g.PNG,2,3,right
,,,,2023-10-10_15h07.44.365,Fish_Game,2023.1.3,MacIntel,60.0024001,,,,,,,,,,,,,10,,,,,,,,,,,,,,right,1.5355,,1,1.5,591.7752,0,9,9,9,1,stimuli/bead_g.PNG,stimuli/bead_g.PNG,stimuli/bead_g.PNG,stimuli/bead_y.PNG,stimuli/bead_g.PNG,2,3,right
,,,,2023-10-10_15h07.44.365,Fish_Game,2023.1.3,MacIntel,60.0024001,,,,,,,,,,,,,11,,,,,,,,,,,,,,up,0.8509,,1,1.5,594.642,0,10,10,10,1,stimuli/bead_y.PNG,stimuli/bead_g.PNG,stimuli/bead_g.PNG,stimuli/bead_g.PNG,stimuli/bead_y.PNG,1,2,up
,,,,2023-10-10_15h07.44.365,Fish_Game,2023.1.3,MacIntel,60.0024001,,,,,,,,,,,,,12,,,,,,,,,,,,,,left,1.9322,,0,0.5,597.5955,0,11,11,11,1,stimuli/bead_b.PNG,stimuli/bead_y.PNG,stimuli/bead_g.PNG,stimuli/bead_g.PNG,stimuli/bead_g.PNG,1,2,up
,,,,2023-10-10_15h07.44.365,Fish_Game,2023.1.3,MacIntel,60.0024001,,,,,,,,,,,,,13,,,,,,,,,,,,,,up,0.7849,,1,1,599.9078,0,12,12,12,1,stimuli/bead_y.PNG,stimuli/bead_b.PNG,stimuli/bead_y.PNG,stimuli/bead_g.PNG,stimuli/bead_g.PNG,1,2,up
,,,,2023-10-10_15h07.44.365,Fish_Game,2023.1.3,MacIntel,60.0024001,,,,,,,,,,,,,14,,,,,,,,,,,,,,up,0.621,,1,1.5,602.5429,0,13,13,13,1,stimuli/bead_y.PNG,stimuli/bead_y.PNG,stimuli/bead_b.PNG,stimuli/bead_y.PNG,stimuli/bead_g.PNG,1,2,up
,,,,2023-10-10_15h07.44.365,Fish_Game,2023.1.3,MacIntel,60.0024001,,,,,,,,,,,,,15,,,,,,,,,,,,,,up,0.568,,1,1.5,605.1255,0,14,14,14,1,stimuli/bead_y.PNG,stimuli/bead_y.PNG,stimuli/bead_y.PNG,stimuli/bead_b.PNG,stimuli/bead_y.PNG,1,2,up
