participant,date,expName,psychopyVersion,OS,frameRate,ins1_key.keys,ins1_key.rt,ins1_key.duration,key_resp_2.keys,prac_trials.thisRepN,prac_trials.thisTrialN,prac_trials.thisN,prac_trials.thisIndex,prac_trials.ran,trial,fish1_p,fish2_p,fish3_p,fish4_p,fish5_p,pond_p,pond_p2,pond_p3,key_resp_2.rt,key_resp_2.duration,fish_key_2.corr,ExpStart_key.keys,ExpStart_key.rt,ExpStart_key.duration,block number,block assignment,fish_key_button.keys,fish_key_button.rt,fish_key_button.duration,fish_key.corr,fish_interval,key_resp_time,trials.thisRepN,trials.thisTrialN,trials.thisN,trials.thisIndex,trials.ran,fish1,fish2,fish3,fish4,fish5,pond,pond2,pond3
,2023-10-03_13h05.34.068,Fish_Game,2023.1.3,MacIntel,59.99880002,,,,,,,,,,,,,,,,,,,,,,,,,,,,,,,,,,,,,,,,,,,,,
,2023-10-03_13h05.34.068,Fish_Game,2023.1.3,MacIntel,59.99880002,space,130.9375,,,,,,,,,,,,,,,,,,,,,,,,,,,,,,,,,,,,,,,,,,,
,2023-10-03_13h05.34.068,Fish_Game,2023.1.3,MacIntel,59.99880002,,,,,,,,,,,,,,,,,,,,,,,,,,,,,,,,,,,,,,,,,,,,,
,2023-10-03_13h05.34.068,Fish_Game,2023.1.3,MacIntel,59.99880002,,,,,,,,,,,,,,,,,,,,,,,,,,,,,,,,,,,,,,,,,,,,,
,2023-10-03_13h05.34.068,Fish_Game,2023.1.3,MacIntel,59.99880002,,,,,0,0,0,0,1,1,stimuli/bead_b.PNG,stimuli/blank.jpg,stimuli/blank.jpg,stimuli/blank.jpg,stimuli/blank.jpg,0,1,left,,,,,,,,,,,,,,,,,,,,,,,,,,,
,2023-10-03_13h05.34.068,Fish_Game,2023.1.3,MacIntel,59.99880002,,,,,0,1,1,1,1,2,stimuli/bead_b.PNG,stimuli/bead_b.PNG,stimuli/blank.jpg,stimuli/blank.jpg,stimuli/blank.jpg,0,1,left,,,,,,,,,,,,,,,,,,,,,,,,,,,
,2023-10-03_13h05.34.068,Fish_Game,2023.1.3,MacIntel,59.99880002,,,,up,0,2,2,2,1,3,stimuli/bead_g.PNG,stimuli/bead_b.PNG,stimuli/bead_b.PNG,stimuli/blank.jpg,stimuli/blank.jpg,0,1,left,1.4745,,0,,,,,,,,,,,,,,,,,,,,,,,,
,2023-10-03_13h05.34.068,Fish_Game,2023.1.3,MacIntel,59.99880002,,,,left,0,3,3,3,1,4,stimuli/bead_b.PNG,stimuli/bead_g.PNG,stimuli/bead_b.PNG,stimuli/bead_b.PNG,stimuli/blank.jpg,0,1,left,0.9894,,1,,,,,,,,,,,,,,,,,,,,,,,,
,2023-10-03_13h05.34.068,Fish_Game,2023.1.3,MacIntel,59.99880002,,,,left,0,4,4,4,1,5,stimuli/bead_b.PNG,stimuli/bead_b.PNG,stimuli/bead_g.PNG,stimuli/bead_b.PNG,stimuli/bead_b.PNG,0,1,left,0.5127,,1,,,,,,,,,,,,,,,,,,,,,,,,
,2023-10-03_13h05.34.068,Fish_Game,2023.1.3,MacIntel,59.99880002,,,,up,0,5,5,5,1,6,stimuli/bead_y.PNG,stimuli/bead_b.PNG,stimuli/bead_b.PNG,stimuli/bead_g.PNG,stimuli/bead_b.PNG,0,1,left,0.7011,,0,,,,,,,,,,,,,,,,,,,,,,,,
,2023-10-03_13h05.34.068,Fish_Game,2023.1.3,MacIntel,59.99880002,,,,left,0,6,6,6,1,7,stimuli/bead_b.PNG,stimuli/bead_y.PNG,stimuli/bead_b.PNG,stimuli/bead_b.PNG,stimuli/bead_g.PNG,0,1,left,0.8505,,1,,,,,,,,,,,,,,,,,,,,,,,,
,2023-10-03_13h05.34.068,Fish_Game,2023.1.3,MacIntel,59.99880002,,,,up,0,7,7,7,1,8,stimuli/bead_y.PNG,stimuli/bead_b.PNG,stimuli/bead_y.PNG,stimuli/bead_b.PNG,stimuli/bead_b.PNG,1,2,up,0.8381,,1,,,,,,,,,,,,,,,,,,,,,,,,
,2023-10-03_13h05.34.068,Fish_Game,2023.1.3,MacIntel,59.99880002,,,,up,0,8,8,8,1,9,stimuli/bead_y.PNG,stimuli/bead_y.PNG,stimuli/bead_b.PNG,stimuli/bead_y.PNG,stimuli/bead_b.PNG,1,2,up,3.3766,,1,,,,,,,,,,,,,,,,,,,,,,,,
,2023-10-03_13h05.34.068,Fish_Game,2023.1.3,MacIntel,59.99880002,,,,left,0,9,9,9,1,10,stimuli/bead_b.PNG,stimuli/bead_y.PNG,stimuli/bead_y.PNG,stimuli/bead_b.PNG,stimuli/bead_y.PNG,1,2,up,1.0218,,0,,,,,,,,,,,,,,,,,,,,,,,,
,2023-10-03_13h05.34.068,Fish_Game,2023.1.3,MacIntel,59.99880002,,,,left,0,10,10,10,1,11,stimuli/bead_y.PNG,stimuli/bead_b.PNG,stimuli/bead_y.PNG,stimuli/bead_y.PNG,stimuli/bead_b.PNG,1,2,up,2.2562,,0,,,,,,,,,,,,,,,,,,,,,,,,
,2023-10-03_13h05.34.068,Fish_Game,2023.1.3,MacIntel,59.99880002,,,,up,0,11,11,11,1,12,stimuli/bead_y.PNG,stimuli/bead_y.PNG,stimuli/bead_b.PNG,stimuli/bead_y.PNG,stimuli/bead_y.PNG,1,2,up,0.4904,,1,,,,,,,,,,,,,,,,,,,,,,,,
,2023-10-03_13h05.34.068,Fish_Game,2023.1.3,MacIntel,59.99880002,,,,left,0,12,12,12,1,13,stimuli/bead_b.PNG,stimuli/bead_y.PNG,stimuli/bead_y.PNG,stimuli/bead_b.PNG,stimuli/bead_y.PNG,1,2,up,2.4166,,0,,,,,,,,,,,,,,,,,,,,,,,,
,2023-10-03_13h05.34.068,Fish_Game,2023.1.3,MacIntel,59.99880002,,,,up,0,13,13,13,1,14,stimuli/bead_y.PNG,stimuli/bead_b.PNG,stimuli/bead_y.PNG,stimuli/bead_y.PNG,stimuli/bead_b.PNG,1,2,up,0.8999,,1,,,,,,,,,,,,,,,,,,,,,,,,
,2023-10-03_13h05.34.068,Fish_Game,2023.1.3,MacIntel,59.99880002,,,,right,0,14,14,14,1,15,stimuli/bead_y.PNG,stimuli/bead_y.PNG,stimuli/bead_b.PNG,stimuli/bead_y.PNG,stimuli/bead_y.PNG,1,2,up,0.6416,,0,,,,,,,,,,,,,,,,,,,,,,,,
,2023-10-03_13h05.34.068,Fish_Game,2023.1.3,MacIntel,59.99880002,,,,right,0,0,0,0,1,1,stimuli/bead_g.PNG,stimuli/blank.jpg,stimuli/blank.jpg,stimuli/blank.jpg,stimuli/blank.jpg,2,3,right,2.008,,1,,,,,,,,,,,,,,,,,,,,,,,,
,2023-10-03_13h05.34.068,Fish_Game,2023.1.3,MacIntel,59.99880002,,,,right,0,1,1,1,1,2,stimuli/bead_g.PNG,stimuli/bead_g.PNG,stimuli/blank.jpg,stimuli/blank.jpg,stimuli/blank.jpg,2,3,right,2.3592,,1,,,,,,,,,,,,,,,,,,,,,,,,
,2023-10-03_13h05.34.068,Fish_Game,2023.1.3,MacIntel,59.99880002,,,,right,0,2,2,2,1,3,stimuli/bead_b.PNG,stimuli/bead_g.PNG,stimuli/bead_g.PNG,stimuli/blank.jpg,stimuli/blank.jpg,2,3,right,1.838,,1,,,,,,,,,,,,,,,,,,,,,,,,
,2023-10-03_13h05.34.068,Fish_Game,2023.1.3,MacIntel,59.99880002,,,,right,0,3,3,3,1,4,stimuli/bead_g.PNG,stimuli/bead_g.PNG,stimuli/bead_g.PNG,stimuli/bead_g.PNG,stimuli/blank.jpg,2,3,right,1.4187,,1,,,,,,,,,,,,,,,,,,,,,,,,
,2023-10-03_13h05.34.068,Fish_Game,2023.1.3,MacIntel,59.99880002,,,,right,0,4,4,4,1,5,stimuli/bead_b.PNG,stimuli/bead_b.PNG,stimuli/bead_g.PNG,stimuli/bead_g.PNG,stimuli/bead_g.PNG,2,3,right,0.9063,,1,,,,,,,,,,,,,,,,,,,,,,,,
,2023-10-03_13h05.34.068,Fish_Game,2023.1.3,MacIntel,59.99880002,,,,right,0,5,5,5,1,6,stimuli/bead_g.PNG,stimuli/bead_g.PNG,stimuli/bead_b.PNG,stimuli/bead_g.PNG,stimuli/bead_g.PNG,2,3,right,1.1136,,1,,,,,,,,,,,,,,,,,,,,,,,,
,2023-10-03_13h05.34.068,Fish_Game,2023.1.3,MacIntel,59.99880002,,,,right,0,6,6,6,1,7,stimuli/bead_g.PNG,stimuli/bead_b.PNG,stimuli/bead_g.PNG,stimuli/bead_b.PNG,stimuli/bead_g.PNG,2,3,right,2.1813,,1,,,,,,,,,,,,,,,,,,,,,,,,
,2023-10-03_13h05.34.068,Fish_Game,2023.1.3,MacIntel,59.99880002,,,,right,0,7,7,7,1,8,stimuli/bead_g.PNG,stimuli/bead_g.PNG,stimuli/bead_b.PNG,stimuli/bead_g.PNG,stimuli/bead_b.PNG,2,3,right,2.5627,,1,,,,,,,,,,,,,,,,,,,,,,,,
,2023-10-03_13h05.34.068,Fish_Game,2023.1.3,MacIntel,59.99880002,,,,up,0,8,8,8,1,9,stimuli/bead_y.PNG,stimuli/bead_g.PNG,stimuli/bead_g.PNG,stimuli/bead_b.PNG,stimuli/bead_g.PNG,1,2,up,0.555,,1,,,,,,,,,,,,,,,,,,,,,,,,
,2023-10-03_13h05.34.068,Fish_Game,2023.1.3,MacIntel,59.99880002,,,,up,0,9,9,9,1,10,stimuli/bead_y.PNG,stimuli/bead_g.PNG,stimuli/bead_g.PNG,stimuli/bead_g.PNG,stimuli/bead_b.PNG,1,2,up,2.0315,,1,,,,,,,,,,,,,,,,,,,,,,,,
,2023-10-03_13h05.34.068,Fish_Game,2023.1.3,MacIntel,59.99880002,,,,up,0,10,10,10,1,11,stimuli/bead_y.PNG,stimuli/bead_y.PNG,stimuli/bead_g.PNG,stimuli/bead_g.PNG,stimuli/bead_g.PNG,1,2,up,0.8577,,1,,,,,,,,,,,,,,,,,,,,,,,,
,2023-10-03_13h05.34.068,Fish_Game,2023.1.3,MacIntel,59.99880002,,,,up,0,11,11,11,1,12,stimuli/bead_g.PNG,stimuli/bead_y.PNG,stimuli/bead_y.PNG,stimuli/bead_g.PNG,stimuli/bead_g.PNG,1,2,up,2.2384,,1,,,,,,,,,,,,,,,,,,,,,,,,
,2023-10-03_13h05.34.068,Fish_Game,2023.1.3,MacIntel,59.99880002,,,,up,0,12,12,12,1,13,stimuli/bead_y.PNG,stimuli/bead_y.PNG,stimuli/bead_y.PNG,stimuli/bead_y.PNG,stimuli/bead_g.PNG,1,2,up,1.1473,,1,,,,,,,,,,,,,,,,,,,,,,,,
,2023-10-03_13h05.34.068,Fish_Game,2023.1.3,MacIntel,59.99880002,,,,up,0,13,13,13,1,14,stimuli/bead_y.PNG,stimuli/bead_g.PNG,stimuli/bead_y.PNG,stimuli/bead_y.PNG,stimuli/bead_y.PNG,1,2,up,1.3694,,1,,,,,,,,,,,,,,,,,,,,,,,,
,2023-10-03_13h05.34.068,Fish_Game,2023.1.3,MacIntel,59.99880002,,,,left,0,14,14,14,1,15,stimuli/bead_b.PNG,stimuli/bead_y.PNG,stimuli/bead_g.PNG,stimuli/bead_y.PNG,stimuli/bead_y.PNG,1,2,up,1.3399,,0,,,,,,,,,,,,,,,,,,,,,,,,
,2023-10-03_13h05.34.068,Fish_Game,2023.1.3,MacIntel,59.99880002,,,,,,,,,,1,,,,,,,,,,,,space,34.621,,1,1condition/mainTrials1.xlsx,right,1.4106,,1,1.5,439.5956,0,0,0,0,1,stimuli/bead_g.PNG,stimuli/blank.jpg,stimuli/blank.jpg,stimuli/blank.jpg,stimuli/blank.jpg,2,3,right
,2023-10-03_13h05.34.068,Fish_Game,2023.1.3,MacIntel,59.99880002,,,,,,,,,,2,,,,,,,,,,,,,,,,,up,1.6628,,0,0.5,442.2982,0,1,1,1,1,stimuli/bead_y.PNG,stimuli/bead_g.PNG,stimuli/blank.jpg,stimuli/blank.jpg,stimuli/blank.jpg,2,3,right
,2023-10-03_13h05.34.068,Fish_Game,2023.1.3,MacIntel,59.99880002,,,,,,,,,,3,,,,,,,,,,,,,,,,,right,0.7464,,1,1.5,445.0747,0,2,2,2,1,stimuli/bead_g.PNG,stimuli/bead_y.PNG,stimuli/bead_g.PNG,stimuli/blank.jpg,stimuli/blank.jpg,2,3,right
,2023-10-03_13h05.34.068,Fish_Game,2023.1.3,MacIntel,59.99880002,,,,,,,,,,4,,,,,,,,,,,,,,,,,right,1.8324,,1,1.5,448.9294,0,3,3,3,1,stimuli/bead_b.PNG,stimuli/bead_g.PNG,stimuli/bead_y.PNG,stimuli/bead_g.PNG,stimuli/blank.jpg,2,3,right
,2023-10-03_13h05.34.068,Fish_Game,2023.1.3,MacIntel,59.99880002,,,,,,,,,,5,,,,,,,,,,,,,,,,,right,0.6559,,1,1.5,451.6147,0,4,4,4,1,stimuli/bead_g.PNG,stimuli/bead_b.PNG,stimuli/bead_g.PNG,stimuli/bead_y.PNG,stimuli/bead_g.PNG,2,3,right
,2023-10-03_13h05.34.068,Fish_Game,2023.1.3,MacIntel,59.99880002,,,,,,,,,,6,,,,,,,,,,,,,,,,,right,0.8365,,1,1,453.9836,0,5,5,5,1,stimuli/bead_g.PNG,stimuli/bead_g.PNG,stimuli/bead_b.PNG,stimuli/bead_g.PNG,stimuli/bead_y.PNG,2,3,right
,2023-10-03_13h05.34.068,Fish_Game,2023.1.3,MacIntel,59.99880002,,,,,,,,,,7,,,,,,,,,,,,,,,,,right,1.9081,,1,0.5,456.9163,0,6,6,6,1,stimuli/bead_g.PNG,stimuli/bead_g.PNG,stimuli/bead_g.PNG,stimuli/bead_b.PNG,stimuli/bead_g.PNG,2,3,right
,2023-10-03_13h05.34.068,Fish_Game,2023.1.3,MacIntel,59.99880002,,,,,,,,,,8,,,,,,,,,,,,,,,,,right,0.6602,,1,0.5,458.5819,0,7,7,7,1,stimuli/bead_g.PNG,stimuli/bead_g.PNG,stimuli/bead_g.PNG,stimuli/bead_g.PNG,stimuli/bead_b.PNG,2,3,right
,2023-10-03_13h05.34.068,Fish_Game,2023.1.3,MacIntel,59.99880002,,,,,,,,,,9,,,,,,,,,,,,,,,,,left,3.1717,,0,1,463.2674,0,8,8,8,1,stimuli/bead_b.PNG,stimuli/bead_g.PNG,stimuli/bead_g.PNG,stimuli/bead_g.PNG,stimuli/bead_g.PNG,2,3,right
,2023-10-03_13h05.34.068,Fish_Game,2023.1.3,MacIntel,59.99880002,,,,,,,,,,10,,,,,,,,,,,,,,,,,left,2.2159,,0,0.5,466.4969,0,9,9,9,1,stimuli/bead_g.PNG,stimuli/bead_b.PNG,stimuli/bead_g.PNG,stimuli/bead_g.PNG,stimuli/bead_g.PNG,2,3,right
,2023-10-03_13h05.34.068,Fish_Game,2023.1.3,MacIntel,59.99880002,,,,,,,,,,11,,,,,,,,,,,,,,,,,left,3.1029,,0,0.5,470.6311,0,10,10,10,1,stimuli/bead_g.PNG,stimuli/bead_g.PNG,stimuli/bead_b.PNG,stimuli/bead_g.PNG,stimuli/bead_g.PNG,2,3,right
,2023-10-03_13h05.34.068,Fish_Game,2023.1.3,MacIntel,59.99880002,,,,,,,,,,12,,,,,,,,,,,,,,,,,left,1.2341,,0,0.5,472.8822,0,11,11,11,1,stimuli/bead_g.PNG,stimuli/bead_g.PNG,stimuli/bead_g.PNG,stimuli/bead_b.PNG,stimuli/bead_g.PNG,2,3,right
,2023-10-03_13h05.34.068,Fish_Game,2023.1.3,MacIntel,59.99880002,,,,,,,,,,13,,,,,,,,,,,,,,,,,left,1.0388,,1,1.5,475.9335,0,12,12,12,1,stimuli/bead_b.PNG,stimuli/bead_g.PNG,stimuli/bead_g.PNG,stimuli/bead_g.PNG,stimuli/bead_b.PNG,0,1,left
,2023-10-03_13h05.34.068,Fish_Game,2023.1.3,MacIntel,59.99880002,,,,,,,,,,14,,,,,,,,,,,,,,,,,left,3.4082,,1,1,480.8481,0,13,13,13,1,stimuli/bead_b.PNG,stimuli/bead_b.PNG,stimuli/bead_g.PNG,stimuli/bead_g.PNG,stimuli/bead_g.PNG,0,1,left
,2023-10-03_13h05.34.068,Fish_Game,2023.1.3,MacIntel,59.99880002,,,,,,,,,,15,,,,,,,,,,,,,,,,,left,1.6377,,1,0.5,483.5153,0,14,14,14,1,stimuli/bead_b.PNG,stimuli/bead_b.PNG,stimuli/bead_b.PNG,stimuli/bead_g.PNG,stimuli/bead_g.PNG,0,1,left
,2023-10-03_13h05.34.068,Fish_Game,2023.1.3,MacIntel,59.99880002,,,,,,,,,,1,,,,,,,,,,,,,,,2,1condition/mainTrials2.xlsx,up,1.4643,,1,1.5,492.0158,0,0,0,0,1,stimuli/bead_y.PNG,stimuli/blank.jpg,stimuli/blank.jpg,stimuli/blank.jpg,stimuli/blank.jpg,1,2,up
,2023-10-03_13h05.34.068,Fish_Game,2023.1.3,MacIntel,59.99880002,,,,,,,,,,2,,,,,,,,,,,,,,,,,up,1.6594,,1,1,495.1917,0,1,1,1,1,stimuli/bead_b.PNG,stimuli/bead_y.PNG,stimuli/blank.jpg,stimuli/blank.jpg,stimuli/blank.jpg,1,2,up
,2023-10-03_13h05.34.068,Fish_Game,2023.1.3,MacIntel,59.99880002,,,,,,,,,,3,,,,,,,,,,,,,,,,,up,0.6329,,1,1.5,497.8489,0,2,2,2,1,stimuli/bead_y.PNG,stimuli/bead_b.PNG,stimuli/bead_y.PNG,stimuli/blank.jpg,stimuli/blank.jpg,1,2,up
,2023-10-03_13h05.34.068,Fish_Game,2023.1.3,MacIntel,59.99880002,,,,,,,,,,4,,,,,,,,,,,,,,,,,up,0.9389,,1,1,500.3234,0,3,3,3,1,stimuli/bead_y.PNG,stimuli/bead_y.PNG,stimuli/bead_b.PNG,stimuli/bead_y.PNG,stimuli/blank.jpg,1,2,up
,2023-10-03_13h05.34.068,Fish_Game,2023.1.3,MacIntel,59.99880002,,,,,,,,,,5,,,,,,,,,,,,,,,,,up,2.2594,,1,1.5,504.604,0,4,4,4,1,stimuli/bead_g.PNG,stimuli/bead_y.PNG,stimuli/bead_y.PNG,stimuli/bead_b.PNG,stimuli/bead_y.PNG,1,2,up
,2023-10-03_13h05.34.068,Fish_Game,2023.1.3,MacIntel,59.99880002,,,,,,,,,,6,,,,,,,,,,,,,,,,,up,2.4158,,1,1,508.5521,0,5,5,5,1,stimuli/bead_y.PNG,stimuli/bead_g.PNG,stimuli/bead_y.PNG,stimuli/bead_y.PNG,stimuli/bead_b.PNG,1,2,up
,2023-10-03_13h05.34.068,Fish_Game,2023.1.3,MacIntel,59.99880002,,,,,,,,,,7,,,,,,,,,,,,,,,,,left,1.4508,,1,1,511.5674,0,6,6,6,1,stimuli/bead_b.PNG,stimuli/bead_y.PNG,stimuli/bead_g.PNG,stimuli/bead_y.PNG,stimuli/bead_y.PNG,0,1,left
,2023-10-03_13h05.34.068,Fish_Game,2023.1.3,MacIntel,59.99880002,,,,,,,,,,8,,,,,,,,,,,,,,,,,left,0.9835,,1,0.5,513.5683,0,7,7,7,1,stimuli/bead_b.PNG,stimuli/bead_b.PNG,stimuli/bead_y.PNG,stimuli/bead_g.PNG,stimuli/bead_y.PNG,0,1,left
,2023-10-03_13h05.34.068,Fish_Game,2023.1.3,MacIntel,59.99880002,,,,,,,,,,9,,,,,,,,,,,,,,,,,left,1.5495,,1,1.5,517.1477,0,8,8,8,1,stimuli/bead_y.PNG,stimuli/bead_b.PNG,stimuli/bead_b.PNG,stimuli/bead_y.PNG,stimuli/bead_g.PNG,0,1,left
,2023-10-03_13h05.34.068,Fish_Game,2023.1.3,MacIntel,59.99880002,,,,,,,,,,10,,,,,,,,,,,,,,,,,left,0.7318,,1,1.5,519.9009,0,9,9,9,1,stimuli/bead_b.PNG,stimuli/bead_y.PNG,stimuli/bead_b.PNG,stimuli/bead_b.PNG,stimuli/bead_y.PNG,0,1,left
,2023-10-03_13h05.34.068,Fish_Game,2023.1.3,MacIntel,59.99880002,,,,,,,,,,11,,,,,,,,,,,,,,,,,left,1.5182,,1,1,522.9455,0,10,10,10,1,stimuli/bead_b.PNG,stimuli/bead_b.PNG,stimuli/bead_y.PNG,stimuli/bead_b.PNG,stimuli/bead_b.PNG,0,1,left
,2023-10-03_13h05.34.068,Fish_Game,2023.1.3,MacIntel,59.99880002,,,,,,,,,,12,,,,,,,,,,,,,,,,,left,2.8686,,1,0.5,526.8532,0,11,11,11,1,stimuli/bead_b.PNG,stimuli/bead_b.PNG,stimuli/bead_b.PNG,stimuli/bead_y.PNG,stimuli/bead_b.PNG,0,1,left
,2023-10-03_13h05.34.068,Fish_Game,2023.1.3,MacIntel,59.99880002,,,,,,,,,,13,,,,,,,,,,,,,,,,,,,,,0.5,526.8532,0,12,12,12,1,stimuli/bead_g.PNG,stimuli/bead_b.PNG,stimuli/bead_b.PNG,stimuli/bead_b.PNG,stimuli/bead_y.PNG,0,1,left
,2023-10-03_13h05.34.068,Fish_Game,2023.1.3,MacIntel,59.99880002,,,,,,,,,,14,,,,,,,,,,,,,,,,,left,1.2728,,1,0.5,534.3876,0,13,13,13,1,stimuli/bead_b.PNG,stimuli/bead_g.PNG,stimuli/bead_b.PNG,stimuli/bead_b.PNG,stimuli/bead_b.PNG,0,1,left
,2023-10-03_13h05.34.068,Fish_Game,2023.1.3,MacIntel,59.99880002,,,,,,,,,,15,,,,,,,,,,,,,,,,,left,0.7849,,1,1,536.7019,0,14,14,14,1,stimuli/bead_b.PNG,stimuli/bead_b.PNG,stimuli/bead_g.PNG,stimuli/bead_b.PNG,stimuli/bead_b.PNG,0,1,left
,2023-10-03_13h05.34.068,Fish_Game,2023.1.3,MacIntel,59.99880002,,,,,,,,,,1,,,,,,,,,,,,,,,3,1condition/mainTrials3.xlsx,up,1.3764,,1,1,544.6521,0,0,0,0,1,stimuli/bead_y.PNG,stimuli/blank.jpg,stimuli/blank.jpg,stimuli/blank.jpg,stimuli/blank.jpg,1,2,up
,2023-10-03_13h05.34.068,Fish_Game,2023.1.3,MacIntel,59.99880002,,,,,,,,,,2,,,,,,,,,,,,,,,,,up,0.4534,,1,1.5,547.1356,0,1,1,1,1,stimuli/bead_y.PNG,stimuli/bead_y.PNG,stimuli/blank.jpg,stimuli/blank.jpg,stimuli/blank.jpg,1,2,up
,2023-10-03_13h05.34.068,Fish_Game,2023.1.3,MacIntel,59.99880002,,,,,,,,,,3,,,,,,,,,,,,,,,,,left,0.6867,,0,1,549.3359,0,2,2,2,1,stimuli/bead_b.PNG,stimuli/bead_y.PNG,stimuli/bead_y.PNG,stimuli/blank.jpg,stimuli/blank.jpg,1,2,up
,2023-10-03_13h05.34.068,Fish_Game,2023.1.3,MacIntel,59.99880002,,,,,,,,,,4,,,,,,,,,,,,,,,,,up,1.0898,,1,1,551.9356,0,3,3,3,1,stimuli/bead_y.PNG,stimuli/bead_b.PNG,stimuli/bead_y.PNG,stimuli/bead_y.PNG,stimuli/blank.jpg,1,2,up
,2023-10-03_13h05.34.068,Fish_Game,2023.1.3,MacIntel,59.99880002,,,,,,,,,,5,,,,,,,,,,,,,,,,,up,0.8694,,1,0.5,553.8191,0,4,4,4,1,stimuli/bead_y.PNG,stimuli/bead_y.PNG,stimuli/bead_b.PNG,stimuli/bead_y.PNG,stimuli/bead_y.PNG,1,2,up
,2023-10-03_13h05.34.068,Fish_Game,2023.1.3,MacIntel,59.99880002,,,,,,,,,,6,,,,,,,,,,,,,,,,,up,0.5247,,1,1.5,556.3534,0,5,5,5,1,stimuli/bead_y.PNG,stimuli/bead_y.PNG,stimuli/bead_y.PNG,stimuli/bead_b.PNG,stimuli/bead_y.PNG,1,2,up
,2023-10-03_13h05.34.068,Fish_Game,2023.1.3,MacIntel,59.99880002,,,,,,,,,,7,,,,,,,,,,,,,,,,,up,1.8059,,1,0.5,559.1872,0,6,6,6,1,stimuli/bead_b.PNG,stimuli/bead_y.PNG,stimuli/bead_y.PNG,stimuli/bead_y.PNG,stimuli/bead_b.PNG,1,2,up
,2023-10-03_13h05.34.068,Fish_Game,2023.1.3,MacIntel,59.99880002,,,,,,,,,,8,,,,,,,,,,,,,,,,,up,0.8387,,1,1.5,562.054,0,7,7,7,1,stimuli/bead_y.PNG,stimuli/bead_b.PNG,stimuli/bead_y.PNG,stimuli/bead_y.PNG,stimuli/bead_y.PNG,1,2,up
,2023-10-03_13h05.34.068,Fish_Game,2023.1.3,MacIntel,59.99880002,,,,,,,,,,9,,,,,,,,,,,,,,,,,up,1.0088,,1,1,564.5873,0,8,8,8,1,stimuli/bead_y.PNG,stimuli/bead_y.PNG,stimuli/bead_b.PNG,stimuli/bead_y.PNG,stimuli/bead_y.PNG,1,2,up
,2023-10-03_13h05.34.068,Fish_Game,2023.1.3,MacIntel,59.99880002,,,,,,,,,,10,,,,,,,,,,,,,,,,,right,1.04,,0,1.5,567.5874,0,9,9,9,1,stimuli/bead_g.PNG,stimuli/bead_y.PNG,stimuli/bead_y.PNG,stimuli/bead_b.PNG,stimuli/bead_y.PNG,1,2,up
,2023-10-03_13h05.34.068,Fish_Game,2023.1.3,MacIntel,59.99880002,,,,,,,,,,11,,,,,,,,,,,,,,,,,up,1.0374,,1,1,570.1557,0,10,10,10,1,stimuli/bead_y.PNG,stimuli/bead_g.PNG,stimuli/bead_y.PNG,stimuli/bead_y.PNG,stimuli/bead_b.PNG,1,2,up
,2023-10-03_13h05.34.068,Fish_Game,2023.1.3,MacIntel,59.99880002,,,,,,,,,,12,,,,,,,,,,,,,,,,,right,1.9513,,0,0.5,573.1236,0,11,11,11,1,stimuli/bead_g.PNG,stimuli/bead_y.PNG,stimuli/bead_g.PNG,stimuli/bead_y.PNG,stimuli/bead_y.PNG,1,2,up
,2023-10-03_13h05.34.068,Fish_Game,2023.1.3,MacIntel,59.99880002,,,,,,,,,,13,,,,,,,,,,,,,,,,,up,0.6177,,1,1.5,575.7551,0,12,12,12,1,stimuli/bead_y.PNG,stimuli/bead_g.PNG,stimuli/bead_y.PNG,stimuli/bead_g.PNG,stimuli/bead_y.PNG,1,2,up
,2023-10-03_13h05.34.068,Fish_Game,2023.1.3,MacIntel,59.99880002,,,,,,,,,,14,,,,,,,,,,,,,,,,,right,0.4424,,0,1.5,578.2226,0,13,13,13,1,stimuli/bead_y.PNG,stimuli/bead_y.PNG,stimuli/bead_g.PNG,stimuli/bead_y.PNG,stimuli/bead_g.PNG,1,2,up
,2023-10-03_13h05.34.068,Fish_Game,2023.1.3,MacIntel,59.99880002,,,,,,,,,,15,,,,,,,,,,,,,,,,,right,1.5418,,0,1,581.2884,0,14,14,14,1,stimuli/bead_y.PNG,stimuli/bead_y.PNG,stimuli/bead_y.PNG,stimuli/bead_g.PNG,stimuli/bead_y.PNG,1,2,up
,2023-10-03_13h05.34.068,Fish_Game,2023.1.3,MacIntel,59.99880002,,,,,,,,,,1,,,,,,,,,,,,,,,4,1condition/mainTrials4.xlsx,right,0.8134,,1,1.5,589.1558,0,0,0,0,1,stimuli/bead_g.PNG,stimuli/blank.jpg,stimuli/blank.jpg,stimuli/blank.jpg,stimuli/blank.jpg,2,3,right
,2023-10-03_13h05.34.068,Fish_Game,2023.1.3,MacIntel,59.99880002,,,,,,,,,,2,,,,,,,,,,,,,,,,,right,0.4772,,1,1,591.1553,0,1,1,1,1,stimuli/bead_g.PNG,stimuli/bead_g.PNG,stimuli/blank.jpg,stimuli/blank.jpg,stimuli/blank.jpg,2,3,right
,2023-10-03_13h05.34.068,Fish_Game,2023.1.3,MacIntel,59.99880002,,,,,,,,,,3,,,,,,,,,,,,,,,,,right,1.1658,,1,0.5,593.3557,0,2,2,2,1,stimuli/bead_b.PNG,stimuli/bead_g.PNG,stimuli/bead_g.PNG,stimuli/blank.jpg,stimuli/blank.jpg,2,3,right
,2023-10-03_13h05.34.068,Fish_Game,2023.1.3,MacIntel,59.99880002,,,,,,,,,,4,,,,,,,,,,,,,,,,,right,0.6568,,1,1,595.5244,0,3,3,3,1,stimuli/bead_g.PNG,stimuli/bead_b.PNG,stimuli/bead_g.PNG,stimuli/bead_g.PNG,stimuli/blank.jpg,2,3,right
,2023-10-03_13h05.34.068,Fish_Game,2023.1.3,MacIntel,59.99880002,,,,,,,,,,5,,,,,,,,,,,,,,,,,right,0.4323,,1,1.5,597.9651,0,4,4,4,1,stimuli/bead_g.PNG,stimuli/bead_g.PNG,stimuli/bead_b.PNG,stimuli/bead_g.PNG,stimuli/bead_g.PNG,2,3,right
,2023-10-03_13h05.34.068,Fish_Game,2023.1.3,MacIntel,59.99880002,,,,,,,,,,6,,,,,,,,,,,,,,,,,right,1.7836,,1,0.5,600.773,0,5,5,5,1,stimuli/bead_y.PNG,stimuli/bead_g.PNG,stimuli/bead_g.PNG,stimuli/bead_b.PNG,stimuli/bead_g.PNG,2,3,right
,2023-10-03_13h05.34.068,Fish_Game,2023.1.3,MacIntel,59.99880002,,,,,,,,,,7,,,,,,,,,,,,,,,,,right,0.4397,,1,1,602.7416,0,6,6,6,1,stimuli/bead_g.PNG,stimuli/bead_y.PNG,stimuli/bead_g.PNG,stimuli/bead_g.PNG,stimuli/bead_b.PNG,2,3,right
,2023-10-03_13h05.34.068,Fish_Game,2023.1.3,MacIntel,59.99880002,,,,,,,,,,8,,,,,,,,,,,,,,,,,right,0.6667,,0,1.5,605.4418,0,7,7,7,1,stimuli/bead_y.PNG,stimuli/bead_g.PNG,stimuli/bead_y.PNG,stimuli/bead_g.PNG,stimuli/bead_g.PNG,1,2,up
,2023-10-03_13h05.34.068,Fish_Game,2023.1.3,MacIntel,59.99880002,,,,,,,,,,9,,,,,,,,,,,,,,,,,up,0.7972,,1,1,607.7731,0,8,8,8,1,stimuli/bead_y.PNG,stimuli/bead_y.PNG,stimuli/bead_g.PNG,stimuli/bead_y.PNG,stimuli/bead_g.PNG,1,2,up
,2023-10-03_13h05.34.068,Fish_Game,2023.1.3,MacIntel,59.99880002,,,,,,,,,,10,,,,,,,,,,,,,,,,,up,2.425,,1,0.5,611.2066,0,9,9,9,1,stimuli/bead_g.PNG,stimuli/bead_y.PNG,stimuli/bead_y.PNG,stimuli/bead_g.PNG,stimuli/bead_y.PNG,1,2,up
,2023-10-03_13h05.34.068,Fish_Game,2023.1.3,MacIntel,59.99880002,,,,,,,,,,11,,,,,,,,,,,,,,,,,up,0.4809,,1,1.5,613.7199,0,10,10,10,1,stimuli/bead_y.PNG,stimuli/bead_g.PNG,stimuli/bead_y.PNG,stimuli/bead_y.PNG,stimuli/bead_g.PNG,1,2,up
,2023-10-03_13h05.34.068,Fish_Game,2023.1.3,MacIntel,59.99880002,,,,,,,,,,12,,,,,,,,,,,,,,,,,up,2.3265,,1,0.5,617.0579,0,11,11,11,1,stimuli/bead_y.PNG,stimuli/bead_y.PNG,stimuli/bead_g.PNG,stimuli/bead_y.PNG,stimuli/bead_y.PNG,1,2,up
,2023-10-03_13h05.34.068,Fish_Game,2023.1.3,MacIntel,59.99880002,,,,,,,,,,13,,,,,,,,,,,,,,,,,right,0.7088,,0,1.5,619.7913,0,12,12,12,1,stimuli/bead_g.PNG,stimuli/bead_y.PNG,stimuli/bead_y.PNG,stimuli/bead_g.PNG,stimuli/bead_y.PNG,1,2,up
,2023-10-03_13h05.34.068,Fish_Game,2023.1.3,MacIntel,59.99880002,,,,,,,,,,14,,,,,,,,,,,,,,,,,up,0.7481,,1,1,622.0738,0,13,13,13,1,stimuli/bead_y.PNG,stimuli/bead_g.PNG,stimuli/bead_y.PNG,stimuli/bead_y.PNG,stimuli/bead_g.PNG,1,2,up
,2023-10-03_13h05.34.068,Fish_Game,2023.1.3,MacIntel,59.99880002,,,,,,,,,,15,,,,,,,,,,,,,,,,,up,0.492,,1,1.5,624.5835,0,14,14,14,1,stimuli/bead_y.PNG,stimuli/bead_y.PNG,stimuli/bead_g.PNG,stimuli/bead_y.PNG,stimuli/bead_y.PNG,1,2,up
,2023-10-03_13h05.34.068,Fish_Game,2023.1.3,MacIntel,59.99880002,,,,,,,,,,1,,,,,,,,,,,,,,,5,1condition/mainTrials5.xlsx,left,0.8374,,1,1.5,632.4435,0,0,0,0,1,stimuli/bead_b.PNG,stimuli/blank.jpg,stimuli/blank.jpg,stimuli/blank.jpg,stimuli/blank.jpg,0,1,left
,2023-10-03_13h05.34.068,Fish_Game,2023.1.3,MacIntel,59.99880002,,,,,,,,,,2,,,,,,,,,,,,,,,,,left,2.0002,,1,0.5,635.4709,0,1,1,1,1,stimuli/bead_b.PNG,stimuli/bead_b.PNG,stimuli/blank.jpg,stimuli/blank.jpg,stimuli/blank.jpg,0,1,left
,2023-10-03_13h05.34.068,Fish_Game,2023.1.3,MacIntel,59.99880002,,,,,,,,,,3,,,,,,,,,,,,,,,,,left,1.2356,,1,0.5,637.7274,0,2,2,2,1,stimuli/bead_y.PNG,stimuli/bead_b.PNG,stimuli/bead_b.PNG,stimuli/blank.jpg,stimuli/blank.jpg,0,1,left
,2023-10-03_13h05.34.068,Fish_Game,2023.1.3,MacIntel,59.99880002,,,,,,,,,,4,,,,,,,,,,,,,,,,,left,0.9056,,1,0.5,639.5917,0,3,3,3,1,stimuli/bead_b.PNG,stimuli/bead_y.PNG,stimuli/bead_b.PNG,stimuli/bead_b.PNG,stimuli/blank.jpg,0,1,left
,2023-10-03_13h05.34.068,Fish_Game,2023.1.3,MacIntel,59.99880002,,,,,,,,,,5,,,,,,,,,,,,,,,,,left,0.8132,,1,1.5,642.4425,0,4,4,4,1,stimuli/bead_b.PNG,stimuli/bead_b.PNG,stimuli/bead_y.PNG,stimuli/bead_b.PNG,stimuli/bead_b.PNG,0,1,left
,2023-10-03_13h05.34.068,Fish_Game,2023.1.3,MacIntel,59.99880002,,,,,,,,,,6,,,,,,,,,,,,,,,,,right,1.2868,,1,1,645.2433,0,5,5,5,1,stimuli/bead_g.PNG,stimuli/bead_b.PNG,stimuli/bead_b.PNG,stimuli/bead_y.PNG,stimuli/bead_b.PNG,2,3,right
,2023-10-03_13h05.34.068,Fish_Game,2023.1.3,MacIntel,59.99880002,,,,,,,,,,7,,,,,,,,,,,,,,,,,right,1.0295,,1,1,647.7924,0,6,6,6,1,stimuli/bead_g.PNG,stimuli/bead_g.PNG,stimuli/bead_b.PNG,stimuli/bead_b.PNG,stimuli/bead_y.PNG,2,2,right
,2023-10-03_13h05.34.068,Fish_Game,2023.1.3,MacIntel,59.99880002,,,,,,,,,,8,,,,,,,,,,,,,,,,,right,1.2335,,1,1,650.561,0,7,7,7,1,stimuli/bead_b.PNG,stimuli/bead_g.PNG,stimuli/bead_g.PNG,stimuli/bead_b.PNG,stimuli/bead_b.PNG,2,2,right
,2023-10-03_13h05.34.068,Fish_Game,2023.1.3,MacIntel,59.99880002,,,,,,,,,,9,,,,,,,,,,,,,,,,,right,0.5153,,1,1,652.6098,0,8,8,8,1,stimuli/bead_g.PNG,stimuli/bead_b.PNG,stimuli/bead_g.PNG,stimuli/bead_g.PNG,stimuli/bead_b.PNG,2,2,right
,2023-10-03_13h05.34.068,Fish_Game,2023.1.3,MacIntel,59.99880002,,,,,,,,,,10,,,,,,,,,,,,,,,,,right,1.0614,,1,0.5,654.7104,0,9,9,9,1,stimuli/bead_b.PNG,stimuli/bead_g.PNG,stimuli/bead_b.PNG,stimuli/bead_g.PNG,stimuli/bead_g.PNG,2,2,right
,2023-10-03_13h05.34.068,Fish_Game,2023.1.3,MacIntel,59.99880002,,,,,,,,,,11,,,,,,,,,,,,,,,,,right,0.4985,,1,1,656.744,0,10,10,10,1,stimuli/bead_g.PNG,stimuli/bead_b.PNG,stimuli/bead_g.PNG,stimuli/bead_b.PNG,stimuli/bead_g.PNG,2,2,right
,2023-10-03_13h05.34.068,Fish_Game,2023.1.3,MacIntel,59.99880002,,,,,,,,,,12,,,,,,,,,,,,,,,,,right,0.6437,,1,1,658.912,0,11,11,11,1,stimuli/bead_g.PNG,stimuli/bead_g.PNG,stimuli/bead_b.PNG,stimuli/bead_g.PNG,stimuli/bead_b.PNG,2,2,right
,2023-10-03_13h05.34.068,Fish_Game,2023.1.3,MacIntel,59.99880002,,,,,,,,,,13,,,,,,,,,,,,,,,,,right,0.3808,,1,1.5,661.3119,0,12,12,12,1,stimuli/bead_g.PNG,stimuli/bead_g.PNG,stimuli/bead_g.PNG,stimuli/bead_b.PNG,stimuli/bead_g.PNG,2,3,right
,2023-10-03_13h05.34.068,Fish_Game,2023.1.3,MacIntel,59.99880002,,,,,,,,,,14,,,,,,,,,,,,,,,,,up,0.9829,,0,1.5,664.3435,0,13,13,13,1,stimuli/bead_y.PNG,stimuli/bead_g.PNG,stimuli/bead_g.PNG,stimuli/bead_g.PNG,stimuli/bead_b.PNG,2,3,right
,2023-10-03_13h05.34.068,Fish_Game,2023.1.3,MacIntel,59.99880002,,,,,,,,,,15,,,,,,,,,,,,,,,,,right,0.9029,,1,1.5,667.2614,0,14,14,14,1,stimuli/bead_g.PNG,stimuli/bead_y.PNG,stimuli/bead_g.PNG,stimuli/bead_g.PNG,stimuli/bead_g.PNG,2,3,right
,2023-10-03_13h05.34.068,Fish_Game,2023.1.3,MacIntel,59.99880002,,,,,,,,,,1,,,,,,,,,,,,,,,6,1condition/mainTrials6.xlsx,right,0.5899,,0,1.5,674.8779,0,0,0,0,1,stimuli/bead_g.PNG,stimuli/blank.jpg,stimuli/blank.jpg,stimuli/blank.jpg,stimuli/blank.jpg,1,2,up
,2023-10-03_13h05.34.068,Fish_Game,2023.1.3,MacIntel,59.99880002,,,,,,,,,,2,,,,,,,,,,,,,,,,,right,1.4531,,0,0.5,677.3479,0,1,1,1,1,stimuli/bead_y.PNG,stimuli/bead_g.PNG,stimuli/blank.jpg,stimuli/blank.jpg,stimuli/blank.jpg,1,2,up
,2023-10-03_13h05.34.068,Fish_Game,2023.1.3,MacIntel,59.99880002,,,,,,,,,,3,,,,,,,,,,,,,,,,,right,1.1363,,0,0.5,679.5136,0,2,2,2,1,stimuli/bead_y.PNG,stimuli/bead_y.PNG,stimuli/bead_g.PNG,stimuli/blank.jpg,stimuli/blank.jpg,1,2,up
,2023-10-03_13h05.34.068,Fish_Game,2023.1.3,MacIntel,59.99880002,,,,,,,,,,4,,,,,,,,,,,,,,,,,up,0.3776,,1,1.5,681.9083,0,3,3,3,1,stimuli/bead_y.PNG,stimuli/bead_y.PNG,stimuli/bead_y.PNG,stimuli/bead_g.PNG,stimuli/blank.jpg,1,2,up
,2023-10-03_13h05.34.068,Fish_Game,2023.1.3,MacIntel,59.99880002,,,,,,,,,,5,,,,,,,,,,,,,,,,,up,1.1929,,0,1,684.6292,0,4,4,4,1,stimuli/bead_g.PNG,stimuli/bead_y.PNG,stimuli/bead_y.PNG,stimuli/bead_y.PNG,stimuli/bead_g.PNG,2,3,right
,2023-10-03_13h05.34.068,Fish_Game,2023.1.3,MacIntel,59.99880002,,,,,,,,,,6,,,,,,,,,,,,,,,,,right,1.0264,,1,1,687.1797,0,5,5,5,1,stimuli/bead_g.PNG,stimuli/bead_g.PNG,stimuli/bead_y.PNG,stimuli/bead_y.PNG,stimuli/bead_y.PNG,2,3,right
,2023-10-03_13h05.34.068,Fish_Game,2023.1.3,MacIntel,59.99880002,,,,,,,,,,7,,,,,,,,,,,,,,,,,up,1.2738,,0,1,689.9795,0,6,6,6,1,stimuli/bead_y.PNG,stimuli/bead_g.PNG,stimuli/bead_g.PNG,stimuli/bead_y.PNG,stimuli/bead_y.PNG,2,3,right
,2023-10-03_13h05.34.068,Fish_Game,2023.1.3,MacIntel,59.99880002,,,,,,,,,,8,,,,,,,,,,,,,,,,,right,0.7571,,1,0.5,691.7624,0,7,7,7,1,stimuli/bead_g.PNG,stimuli/bead_y.PNG,stimuli/bead_g.PNG,stimuli/bead_g.PNG,stimuli/bead_y.PNG,2,3,right
,2023-10-03_13h05.34.068,Fish_Game,2023.1.3,MacIntel,59.99880002,,,,,,,,,,9,,,,,,,,,,,,,,,,,right,0.6257,,1,0.5,693.4123,0,8,8,8,1,stimuli/bead_g.PNG,stimuli/bead_g.PNG,stimuli/bead_y.PNG,stimuli/bead_g.PNG,stimuli/bead_g.PNG,2,3,right
,2023-10-03_13h05.34.068,Fish_Game,2023.1.3,MacIntel,59.99880002,,,,,,,,,,10,,,,,,,,,,,,,,,,,right,0.4165,,1,1.5,695.8628,0,9,9,9,1,stimuli/bead_g.PNG,stimuli/bead_g.PNG,stimuli/bead_g.PNG,stimuli/bead_y.PNG,stimuli/bead_g.PNG,2,3,right
,2023-10-03_13h05.34.068,Fish_Game,2023.1.3,MacIntel,59.99880002,,,,,,,,,,11,,,,,,,,,,,,,,,,,right,1.0234,,0,1,698.4209,0,10,10,10,1,stimuli/bead_y.PNG,stimuli/bead_g.PNG,stimuli/bead_g.PNG,stimuli/bead_g.PNG,stimuli/bead_y.PNG,1,2,up
,2023-10-03_13h05.34.068,Fish_Game,2023.1.3,MacIntel,59.99880002,,,,,,,,,,12,,,,,,,,,,,,,,,,,right,2.1213,,0,1,702.0692,0,11,11,11,1,stimuli/bead_b.PNG,stimuli/bead_y.PNG,stimuli/bead_g.PNG,stimuli/bead_g.PNG,stimuli/bead_g.PNG,1,2,up
,2023-10-03_13h05.34.068,Fish_Game,2023.1.3,MacIntel,59.99880002,,,,,,,,,,13,,,,,,,,,,,,,,,,,up,0.8535,,1,0.5,703.9626,0,12,12,12,1,stimuli/bead_y.PNG,stimuli/bead_b.PNG,stimuli/bead_y.PNG,stimuli/bead_g.PNG,stimuli/bead_g.PNG,1,2,up
,2023-10-03_13h05.34.068,Fish_Game,2023.1.3,MacIntel,59.99880002,,,,,,,,,,14,,,,,,,,,,,,,,,,,up,0.4401,,1,1.5,706.4219,0,13,13,13,1,stimuli/bead_y.PNG,stimuli/bead_y.PNG,stimuli/bead_b.PNG,stimuli/bead_y.PNG,stimuli/bead_g.PNG,1,2,up
,2023-10-03_13h05.34.068,Fish_Game,2023.1.3,MacIntel,59.99880002,,,,,,,,,,15,,,,,,,,,,,,,,,,,up,0.5411,,1,1.5,708.9797,0,14,14,14,1,stimuli/bead_y.PNG,stimuli/bead_y.PNG,stimuli/bead_y.PNG,stimuli/bead_b.PNG,stimuli/bead_y.PNG,1,2,up
,2023-10-03_13h05.34.068,Fish_Game,2023.1.3,MacIntel,59.99880002,,,,,,,,,,1,,,,,,,,,,,,,,,7,1condition/mainTrials7.xlsx,up,1.0952,,1,1,716.5982,0,0,0,0,1,stimuli/bead_y.PNG,stimuli/blank.jpg,stimuli/blank.jpg,stimuli/blank.jpg,stimuli/blank.jpg,1,2,up
,2023-10-03_13h05.34.068,Fish_Game,2023.1.3,MacIntel,59.99880002,,,,,,,,,,2,,,,,,,,,,,,,,,,,up,0.8061,,1,1,718.9308,0,1,1,1,1,stimuli/bead_y.PNG,stimuli/bead_y.PNG,stimuli/blank.jpg,stimuli/blank.jpg,stimuli/blank.jpg,1,2,up
,2023-10-03_13h05.34.068,Fish_Game,2023.1.3,MacIntel,59.99880002,,,,,,,,,,3,,,,,,,,,,,,,,,,,up,1.534,,1,1,721.9828,0,2,2,2,1,stimuli/bead_g.PNG,stimuli/bead_y.PNG,stimuli/bead_y.PNG,stimuli/blank.jpg,stimuli/blank.jpg,1,2,up
,2023-10-03_13h05.34.068,Fish_Game,2023.1.3,MacIntel,59.99880002,,,,,,,,,,4,,,,,,,,,,,,,,,,,up,0.6922,,1,0.5,723.6978,0,3,3,3,1,stimuli/bead_y.PNG,stimuli/bead_g.PNG,stimuli/bead_y.PNG,stimuli/bead_y.PNG,stimuli/blank.jpg,1,2,up
,2023-10-03_13h05.34.068,Fish_Game,2023.1.3,MacIntel,59.99880002,,,,,,,,,,5,,,,,,,,,,,,,,,,,up,0.3212,,1,1.5,726.0618,0,4,4,4,1,stimuli/bead_y.PNG,stimuli/bead_y.PNG,stimuli/bead_g.PNG,stimuli/bead_y.PNG,stimuli/bead_y.PNG,1,2,up
,2023-10-03_13h05.34.068,Fish_Game,2023.1.3,MacIntel,59.99880002,,,,,,,,,,6,,,,,,,,,,,,,,,,,up,0.3841,,1,1.5,728.4814,0,5,5,5,1,stimuli/bead_y.PNG,stimuli/bead_y.PNG,stimuli/bead_y.PNG,stimuli/bead_g.PNG,stimuli/bead_y.PNG,1,2,up
,2023-10-03_13h05.34.068,Fish_Game,2023.1.3,MacIntel,59.99880002,,,,,,,,,,7,,,,,,,,,,,,,,,,,up,1.7912,,1,1,731.8019,0,6,6,6,1,stimuli/bead_b.PNG,stimuli/bead_y.PNG,stimuli/bead_y.PNG,stimuli/bead_y.PNG,stimuli/bead_g.PNG,1,2,up
,2023-10-03_13h05.34.068,Fish_Game,2023.1.3,MacIntel,59.99880002,,,,,,,,,,8,,,,,,,,,,,,,,,,,up,0.3701,,1,1.5,734.1825,0,7,7,7,1,stimuli/bead_y.PNG,stimuli/bead_b.PNG,stimuli/bead_y.PNG,stimuli/bead_y.PNG,stimuli/bead_y.PNG,1,2,up
,2023-10-03_13h05.34.068,Fish_Game,2023.1.3,MacIntel,59.99880002,,,,,,,,,,9,,,,,,,,,,,,,,,,,up,0.6453,,0,1,736.3337,0,8,8,8,1,stimuli/bead_y.PNG,stimuli/bead_y.PNG,stimuli/bead_b.PNG,stimuli/bead_y.PNG,stimuli/bead_y.PNG,1,2,right
,2023-10-03_13h05.34.068,Fish_Game,2023.1.3,MacIntel,59.99880002,,,,,,,,,,10,,,,,,,,,,,,,,,,,right,1.7831,,1,0.5,739.133,0,9,9,9,1,stimuli/bead_g.PNG,stimuli/bead_y.PNG,stimuli/bead_y.PNG,stimuli/bead_b.PNG,stimuli/bead_y.PNG,2,3,right
,2023-10-03_13h05.34.068,Fish_Game,2023.1.3,MacIntel,59.99880002,,,,,,,,,,11,,,,,,,,,,,,,,,,,right,0.3993,,1,1.5,741.5688,0,10,10,10,1,stimuli/bead_g.PNG,stimuli/bead_g.PNG,stimuli/bead_y.PNG,stimuli/bead_y.PNG,stimuli/bead_b.PNG,2,3,right
,2023-10-03_13h05.34.068,Fish_Game,2023.1.3,MacIntel,59.99880002,,,,,,,,,,12,,,,,,,,,,,,,,,,,right,1.5515,,1,1,744.6406,0,11,11,11,1,stimuli/bead_y.PNG,stimuli/bead_g.PNG,stimuli/bead_g.PNG,stimuli/bead_y.PNG,stimuli/bead_y.PNG,2,3,right
,2023-10-03_13h05.34.068,Fish_Game,2023.1.3,MacIntel,59.99880002,,,,,,,,,,13,,,,,,,,,,,,,,,,,right,0.456,,1,1.5,747.1164,0,12,12,12,1,stimuli/bead_g.PNG,stimuli/bead_y.PNG,stimuli/bead_g.PNG,stimuli/bead_g.PNG,stimuli/bead_y.PNG,2,3,right
,2023-10-03_13h05.34.068,Fish_Game,2023.1.3,MacIntel,59.99880002,,,,,,,,,,14,,,,,,,,,,,,,,,,,right,0.7746,,1,0.5,748.9162,0,13,13,13,1,stimuli/bead_g.PNG,stimuli/bead_g.PNG,stimuli/bead_y.PNG,stimuli/bead_g.PNG,stimuli/bead_g.PNG,2,3,right
,2023-10-03_13h05.34.068,Fish_Game,2023.1.3,MacIntel,59.99880002,,,,,,,,,,15,,,,,,,,,,,,,,,,,right,0.3405,,1,1.5,751.2833,0,14,14,14,1,stimuli/bead_g.PNG,stimuli/bead_g.PNG,stimuli/bead_g.PNG,stimuli/bead_y.PNG,stimuli/bead_g.PNG,2,3,right
,2023-10-03_13h05.34.068,Fish_Game,2023.1.3,MacIntel,59.99880002,,,,,,,,,,1,,,,,,,,,,,,,,,8,1condition/mainTrials8.xlsx,up,0.849,,0,1.5,759.1843,0,0,0,0,1,stimuli/bead_y.PNG,stimuli/blank.jpg,stimuli/blank.jpg,stimuli/blank.jpg,stimuli/blank.jpg,0,1,left
,2023-10-03_13h05.34.068,Fish_Game,2023.1.3,MacIntel,59.99880002,,,,,,,,,,2,,,,,,,,,,,,,,,,,up,1.8864,,0,0.5,762.1039,0,1,1,1,1,stimuli/bead_b.PNG,stimuli/bead_g.PNG,stimuli/blank.jpg,stimuli/blank.jpg,stimuli/blank.jpg,0,1,left
,2023-10-03_13h05.34.068,Fish_Game,2023.1.3,MacIntel,59.99880002,,,,,,,,,,3,,,,,,,,,,,,,,,,,right,1.1655,,0,1,764.7946,0,2,2,2,1,stimuli/bead_g.PNG,stimuli/bead_y.PNG,stimuli/bead_g.PNG,stimuli/blank.jpg,stimuli/blank.jpg,0,1,left
,2023-10-03_13h05.34.068,Fish_Game,2023.1.3,MacIntel,59.99880002,,,,,,,,,,4,,,,,,,,,,,,,,,,,up,1.2357,,0,1.5,768.0515,0,3,3,3,1,stimuli/bead_b.PNG,stimuli/bead_y.PNG,stimuli/bead_y.PNG,stimuli/bead_g.PNG,stimuli/blank.jpg,0,1,left
,2023-10-03_13h05.34.068,Fish_Game,2023.1.3,MacIntel,59.99880002,,,,,,,,,,5,,,,,,,,,,,,,,,,,up,0.8396,,0,1,770.4047,0,4,4,4,1,stimuli/bead_b.PNG,stimuli/bead_y.PNG,stimuli/bead_y.PNG,stimuli/bead_y.PNG,stimuli/bead_g.PNG,0,1,left
,2023-10-03_13h05.34.068,Fish_Game,2023.1.3,MacIntel,59.99880002,,,,,,,,,,6,,,,,,,,,,,,,,,,,up,0.608,,0,1,772.5351,0,5,5,5,1,stimuli/bead_b.PNG,stimuli/bead_b.PNG,stimuli/bead_y.PNG,stimuli/bead_y.PNG,stimuli/bead_y.PNG,0,1,left
,2023-10-03_13h05.34.068,Fish_Game,2023.1.3,MacIntel,59.99880002,,,,,,,,,,7,,,,,,,,,,,,,,,,,right,0.9666,,0,1.5,775.5178,0,6,6,6,1,stimuli/bead_g.PNG,stimuli/bead_y.PNG,stimuli/bead_b.PNG,stimuli/bead_y.PNG,stimuli/bead_y.PNG,0,1,left
,2023-10-03_13h05.34.068,Fish_Game,2023.1.3,MacIntel,59.99880002,,,,,,,,,,8,,,,,,,,,,,,,,,,,left,1.3607,,1,1,778.3869,0,7,7,7,1,stimuli/bead_b.PNG,stimuli/bead_y.PNG,stimuli/bead_y.PNG,stimuli/bead_b.PNG,stimuli/bead_y.PNG,0,1,left
,2023-10-03_13h05.34.068,Fish_Game,2023.1.3,MacIntel,59.99880002,,,,,,,,,,9,,,,,,,,,,,,,,,,,up,1.1797,,0,1,781.0835,0,8,8,8,1,stimuli/bead_y.PNG,stimuli/bead_y.PNG,stimuli/bead_y.PNG,stimuli/bead_y.PNG,stimuli/bead_b.PNG,0,1,left
,2023-10-03_13h05.34.068,Fish_Game,2023.1.3,MacIntel,59.99880002,,,,,,,,,,10,,,,,,,,,,,,,,,,,,,,,1,781.0835,0,9,9,9,1,stimuli/bead_b.PNG,stimuli/bead_y.PNG,stimuli/bead_y.PNG,stimuli/bead_y.PNG,stimuli/bead_y.PNG,0,1,left
,2023-10-03_13h05.34.068,Fish_Game,2023.1.3,MacIntel,59.99880002,,,,,,,,,,11,,,,,,,,,,,,,,,,,up,0.6646,,0,0.5,859.4967,0,10,10,10,1,stimuli/bead_b.PNG,stimuli/bead_b.PNG,stimuli/bead_y.PNG,stimuli/bead_y.PNG,stimuli/bead_y.PNG,0,1,left
,2023-10-03_13h05.34.068,Fish_Game,2023.1.3,MacIntel,59.99880002,,,,,,,,,,12,,,,,,,,,,,,,,,,,up,0.4661,,1,1,861.4868,0,11,11,11,1,stimuli/bead_y.PNG,stimuli/bead_y.PNG,stimuli/bead_b.PNG,stimuli/bead_y.PNG,stimuli/bead_y.PNG,1,2,up
,2023-10-03_13h05.34.068,Fish_Game,2023.1.3,MacIntel,59.99880002,,,,,,,,,,13,,,,,,,,,,,,,,,,,up,0.4311,,1,1.5,863.9555,0,12,12,12,1,stimuli/bead_y.PNG,stimuli/bead_y.PNG,stimuli/bead_y.PNG,stimuli/bead_b.PNG,stimuli/bead_y.PNG,1,2,up
,2023-10-03_13h05.34.068,Fish_Game,2023.1.3,MacIntel,59.99880002,,,,,,,,,,14,,,,,,,,,,,,,,,,,up,1.2381,,1,0.5,866.4369,0,13,13,13,1,stimuli/bead_y.PNG,stimuli/bead_g.PNG,stimuli/bead_y.PNG,stimuli/bead_y.PNG,stimuli/bead_b.PNG,1,2,up
,2023-10-03_13h05.34.068,Fish_Game,2023.1.3,MacIntel,59.99880002,,,,,,,,,,15,,,,,,,,,,,,,,,,,up,0.9003,,1,1,868.8587,0,14,14,14,1,stimuli/bead_g.PNG,stimuli/bead_g.PNG,stimuli/bead_g.PNG,stimuli/bead_y.PNG,stimuli/bead_y.PNG,1,2,up
,2023-10-03_13h05.34.068,Fish_Game,2023.1.3,MacIntel,59.99880002,,,,,,,,,,1,,,,,,,,,,,,,,,9,1condition/mainTrials9.xlsx,right,0.5061,,1,1.5,876.4242,0,0,0,0,1,stimuli/bead_g.PNG,stimuli/blank.jpg,stimuli/blank.jpg,stimuli/blank.jpg,stimuli/blank.jpg,2,3,right
,2023-10-03_13h05.34.068,Fish_Game,2023.1.3,MacIntel,59.99880002,,,,,,,,,,2,,,,,,,,,,,,,,,,,right,0.8025,,1,1,878.7434,0,1,1,1,1,stimuli/bead_g.PNG,stimuli/bead_g.PNG,stimuli/blank.jpg,stimuli/blank.jpg,stimuli/blank.jpg,2,3,right
,2023-10-03_13h05.34.068,Fish_Game,2023.1.3,MacIntel,59.99880002,,,,,,,,,,3,,,,,,,,,,,,,,,,,up,0.6246,,0,1.5,881.3762,0,2,2,2,1,stimuli/bead_b.PNG,stimuli/bead_g.PNG,stimuli/bead_g.PNG,stimuli/blank.jpg,stimuli/blank.jpg,2,3,right
,2023-10-03_13h05.34.068,Fish_Game,2023.1.3,MacIntel,59.99880002,,,,,,,,,,4,,,,,,,,,,,,,,,,,right,0.7839,,1,0.5,883.1752,0,3,3,3,1,stimuli/bead_g.PNG,stimuli/bead_b.PNG,stimuli/bead_g.PNG,stimuli/bead_g.PNG,stimuli/blank.jpg,2,3,right
,2023-10-03_13h05.34.068,Fish_Game,2023.1.3,MacIntel,59.99880002,,,,,,,,,,5,,,,,,,,,,,,,,,,,right,0.318,,1,1.5,885.5089,0,4,4,4,1,stimuli/bead_g.PNG,stimuli/bead_g.PNG,stimuli/bead_b.PNG,stimuli/bead_g.PNG,stimuli/bead_g.PNG,2,3,right
,2023-10-03_13h05.34.068,Fish_Game,2023.1.3,MacIntel,59.99880002,,,,,,,,,,6,,,,,,,,,,,,,,,,,right,0.3265,,1,1.5,887.8424,0,5,5,5,1,stimuli/bead_b.PNG,stimuli/bead_g.PNG,stimuli/bead_g.PNG,stimuli/bead_b.PNG,stimuli/bead_g.PNG,2,3,right
,2023-10-03_13h05.34.068,Fish_Game,2023.1.3,MacIntel,59.99880002,,,,,,,,,,7,,,,,,,,,,,,,,,,,right,0.7118,,1,1,890.0752,0,6,6,6,1,stimuli/bead_g.PNG,stimuli/bead_b.PNG,stimuli/bead_g.PNG,stimuli/bead_g.PNG,stimuli/bead_b.PNG,2,3,right
,2023-10-03_13h05.34.068,Fish_Game,2023.1.3,MacIntel,59.99880002,,,,,,,,,,8,,,,,,,,,,,,,,,,,right,0.791,,1,1,892.392,0,7,7,7,1,stimuli/bead_g.PNG,stimuli/bead_g.PNG,stimuli/bead_b.PNG,stimuli/bead_g.PNG,stimuli/bead_g.PNG,2,3,right
,2023-10-03_13h05.34.068,Fish_Game,2023.1.3,MacIntel,59.99880002,,,,,,,,,,9,,,,,,,,,,,,,,,,,right,0.587,,0,1.5,895.009,0,8,8,8,1,stimuli/bead_b.PNG,stimuli/bead_g.PNG,stimuli/bead_g.PNG,stimuli/bead_b.PNG,stimuli/bead_g.PNG,0,1,left
,2023-10-03_13h05.34.068,Fish_Game,2023.1.3,MacIntel,59.99880002,,,,,,,,,,10,,,,,,,,,,,,,,,,,up,1.0096,,0,0.5,897.0433,0,9,9,9,1,stimuli/bead_y.PNG,stimuli/bead_b.PNG,stimuli/bead_g.PNG,stimuli/bead_g.PNG,stimuli/bead_b.PNG,0,1,left
,2023-10-03_13h05.34.068,Fish_Game,2023.1.3,MacIntel,59.99880002,,,,,,,,,,11,,,,,,,,,,,,,,,,,up,0.7134,,0,1,899.2773,0,10,10,10,1,stimuli/bead_b.PNG,stimuli/bead_y.PNG,stimuli/bead_b.PNG,stimuli/bead_g.PNG,stimuli/bead_g.PNG,0,1,left
,2023-10-03_13h05.34.068,Fish_Game,2023.1.3,MacIntel,59.99880002,,,,,,,,,,12,,,,,,,,,,,,,,,,,left,0.5084,,1,1,901.3122,0,11,11,11,1,stimuli/bead_b.PNG,stimuli/bead_b.PNG,stimuli/bead_y.PNG,stimuli/bead_b.PNG,stimuli/bead_g.PNG,0,1,left
,2023-10-03_13h05.34.068,Fish_Game,2023.1.3,MacIntel,59.99880002,,,,,,,,,,13,,,,,,,,,,,,,,,,,left,0.4008,,1,1.5,903.7279,0,12,12,12,1,stimuli/bead_b.PNG,stimuli/bead_b.PNG,stimuli/bead_b.PNG,stimuli/bead_y.PNG,stimuli/bead_b.PNG,0,1,left
,2023-10-03_13h05.34.068,Fish_Game,2023.1.3,MacIntel,59.99880002,,,,,,,,,,14,,,,,,,,,,,,,,,,,left,1.7896,,1,0.5,906.5441,0,13,13,13,1,stimuli/bead_g.PNG,stimuli/bead_b.PNG,stimuli/bead_b.PNG,stimuli/bead_b.PNG,stimuli/bead_y.PNG,0,1,left
,2023-10-03_13h05.34.068,Fish_Game,2023.1.3,MacIntel,59.99880002,,,,,,,,,,15,,,,,,,,,,,,,,,,,left,0.4705,,1,0.5,908.0431,0,14,14,14,1,stimuli/bead_b.PNG,stimuli/bead_g.PNG,stimuli/bead_b.PNG,stimuli/bead_b.PNG,stimuli/bead_b.PNG,0,1,left
,2023-10-03_13h05.34.068,Fish_Game,2023.1.3,MacIntel,59.99880002,,,,,,,,,,1,,,,,,,,,,,,,,,10,1condition/mainTrials10.xlsx,up,1.0132,,0,0.5,950.9981,0,0,0,0,1,stimuli/bead_y.PNG,stimuli/blank.jpg,stimuli/blank.jpg,stimuli/blank.jpg,stimuli/blank.jpg,0,1,left
,2023-10-03_13h05.34.068,Fish_Game,2023.1.3,MacIntel,59.99880002,,,,,,,,,,2,,,,,,,,,,,,,,,,,left,1.5569,,1,1.5,954.5808,0,1,1,1,1,stimuli/bead_b.PNG,stimuli/bead_y.PNG,stimuli/blank.jpg,stimuli/blank.jpg,stimuli/blank.jpg,0,1,left
,2023-10-03_13h05.34.068,Fish_Game,2023.1.3,MacIntel,59.99880002,,,,,,,,,,3,,,,,,,,,,,,,,,,,left,1.1871,,1,1,957.2975,0,2,2,2,1,stimuli/bead_b.PNG,stimuli/bead_b.PNG,stimuli/bead_y.PNG,stimuli/blank.jpg,stimuli/blank.jpg,0,1,left
,2023-10-03_13h05.34.068,Fish_Game,2023.1.3,MacIntel,59.99880002,,,,,,,,,,4,,,,,,,,,,,,,,,,,left,0.4436,,1,0.5,958.7475,0,3,3,3,1,stimuli/bead_b.PNG,stimuli/bead_b.PNG,stimuli/bead_b.PNG,stimuli/bead_y.PNG,stimuli/blank.jpg,0,1,left
,2023-10-03_13h05.34.068,Fish_Game,2023.1.3,MacIntel,59.99880002,,,,,,,,,,5,,,,,,,,,,,,,,,,,left,0.5082,,1,1.5,961.2652,0,4,4,4,1,stimuli/bead_b.PNG,stimuli/bead_b.PNG,stimuli/bead_b.PNG,stimuli/bead_b.PNG,stimuli/bead_y.PNG,0,1,left
,2023-10-03_13h05.34.068,Fish_Game,2023.1.3,MacIntel,59.99880002,,,,,,,,,,6,,,,,,,,,,,,,,,,,left,1.3918,,1,1,964.182,0,5,5,5,1,stimuli/bead_g.PNG,stimuli/bead_b.PNG,stimuli/bead_b.PNG,stimuli/bead_b.PNG,stimuli/bead_b.PNG,0,1,left
,2023-10-03_13h05.34.068,Fish_Game,2023.1.3,MacIntel,59.99880002,,,,,,,,,,7,,,,,,,,,,,,,,,,,left,0.5519,,1,1,966.2477,0,6,6,6,1,stimuli/bead_b.PNG,stimuli/bead_g.PNG,stimuli/bead_b.PNG,stimuli/bead_b.PNG,stimuli/bead_b.PNG,0,1,left
,2023-10-03_13h05.34.068,Fish_Game,2023.1.3,MacIntel,59.99880002,,,,,,,,,,8,,,,,,,,,,,,,,,,,left,0.3778,,1,1.5,968.648,0,7,7,7,1,stimuli/bead_b.PNG,stimuli/bead_b.PNG,stimuli/bead_g.PNG,stimuli/bead_b.PNG,stimuli/bead_b.PNG,0,1,left
,2023-10-03_13h05.34.068,Fish_Game,2023.1.3,MacIntel,59.99880002,,,,,,,,,,9,,,,,,,,,,,,,,,,,left,2.5001,,1,0.5,972.1656,0,8,8,8,1,stimuli/bead_y.PNG,stimuli/bead_b.PNG,stimuli/bead_b.PNG,stimuli/bead_g.PNG,stimuli/bead_b.PNG,0,1,left
,2023-10-03_13h05.34.068,Fish_Game,2023.1.3,MacIntel,59.99880002,,,,,,,,,,10,,,,,,,,,,,,,,,,,left,0.683,,1,0.5,973.8814,0,9,9,9,1,stimuli/bead_b.PNG,stimuli/bead_y.PNG,stimuli/bead_b.PNG,stimuli/bead_b.PNG,stimuli/bead_g.PNG,0,1,left
,2023-10-03_13h05.34.068,Fish_Game,2023.1.3,MacIntel,59.99880002,,,,,,,,,,11,,,,,,,,,,,,,,,,,right,1.3454,,1,0.5,976.2643,0,10,10,10,1,stimuli/bead_g.PNG,stimuli/bead_b.PNG,stimuli/bead_y.PNG,stimuli/bead_b.PNG,stimuli/bead_b.PNG,2,3,right
,2023-10-03_13h05.34.068,Fish_Game,2023.1.3,MacIntel,59.99880002,,,,,,,,,,12,,,,,,,,,,,,,,,,,right,1.1808,,1,1.5,979.4656,0,11,11,11,1,stimuli/bead_b.PNG,stimuli/bead_g.PNG,stimuli/bead_b.PNG,stimuli/bead_y.PNG,stimuli/bead_b.PNG,2,3,right
,2023-10-03_13h05.34.068,Fish_Game,2023.1.3,MacIntel,59.99880002,,,,,,,,,,13,,,,,,,,,,,,,,,,,right,0.3709,,1,1,981.3513,0,12,12,12,1,stimuli/bead_g.PNG,stimuli/bead_b.PNG,stimuli/bead_g.PNG,stimuli/bead_b.PNG,stimuli/bead_y.PNG,2,3,right
,2023-10-03_13h05.34.068,Fish_Game,2023.1.3,MacIntel,59.99880002,,,,,,,,,,14,,,,,,,,,,,,,,,,,right,0.5519,,1,1.5,983.9149,0,13,13,13,1,stimuli/bead_g.PNG,stimuli/bead_g.PNG,stimuli/bead_b.PNG,stimuli/bead_g.PNG,stimuli/bead_b.PNG,2,3,right
,2023-10-03_13h05.34.068,Fish_Game,2023.1.3,MacIntel,59.99880002,,,,,,,,,,15,,,,,,,,,,,,,,,,,right,1.772,,1,0.5,986.7161,0,14,14,14,1,stimuli/bead_g.PNG,stimuli/bead_g.PNG,stimuli/bead_g.PNG,stimuli/bead_b.PNG,stimuli/bead_g.PNG,2,3,right
