welcome_key.keys,welcome_key.rt,welcome_key.duration,participant,date,expName,psychopyVersion,OS,frameRate,ins1_key.keys,ins1_key.rt,ins1_key.duration,key_resp_2.keys,key_resp_2.rt,key_resp_2.duration,fish_key_2.corr,prac_trials.thisRepN,prac_trials.thisTrialN,prac_trials.thisN,prac_trials.thisIndex,prac_trials.ran,trial,fish1_p,fish2_p,fish3_p,fish4_p,fish5_p,pond_p,pond_p2,pond_p3,ExpStart_key.keys,ExpStart_key.rt,ExpStart_key.duration,block number,block assignment,fish_key_button.keys,fish_key_button.rt,fish_key_button.duration,fish_key.corr,fish_interval,key_resp_time,trials.thisRepN,trials.thisTrialN,trials.thisN,trials.thisIndex,trials.ran,fish1,fish2,fish3,fish4,fish5,pond,pond2,pond3
space,6.7359,,matt_test,2023-10-10_14h24.49.215,Fish_Game,2023.1.3,Win32,60.25911419,,,,,,,,,,,,,,,,,,,,,,,,,,,,,,,,,,,,,,,,,,,,,
,,,matt_test,2023-10-10_14h24.49.215,Fish_Game,2023.1.3,Win32,60.25911419,,,,,,,,,,,,,,,,,,,,,,,,,,,,,,,,,,,,,,,,,,,,,
,,,matt_test,2023-10-10_14h24.49.215,Fish_Game,2023.1.3,Win32,60.25911419,up,67.0185,,,,,,,,,,,,,,,,,,,,,,,,,,,,,,,,,,,,,,,,,,,
,,,matt_test,2023-10-10_14h24.49.215,Fish_Game,2023.1.3,Win32,60.25911419,,,,,,,,,,,,,,,,,,,,,,,,,,,,,,,,,,,,,,,,,,,,,
,,,matt_test,2023-10-10_14h24.49.215,Fish_Game,2023.1.3,Win32,60.25911419,,,,,,,,,,,,,,,,,,,,,,,,,,,,,,,,,,,,,,,,,,,,,
,,,matt_test,2023-10-10_14h24.49.215,Fish_Game,2023.1.3,Win32,60.25911419,,,,left,1.4685,,1,0,0,0,0,1,1,stimuli/bead_b.PNG,stimuli/blank.jpg,stimuli/blank.jpg,stimuli/blank.jpg,stimuli/blank.jpg,0,1,left,,,,,,,,,,,,,,,,,,,,,,,,
,,,matt_test,2023-10-10_14h24.49.215,Fish_Game,2023.1.3,Win32,60.25911419,,,,left,0.4212,,1,0,1,1,1,1,2,stimuli/bead_b.PNG,stimuli/bead_b.PNG,stimuli/blank.jpg,stimuli/blank.jpg,stimuli/blank.jpg,0,1,left,,,,,,,,,,,,,,,,,,,,,,,,
,,,matt_test,2023-10-10_14h24.49.215,Fish_Game,2023.1.3,Win32,60.25911419,,,,right,1.9909,,0,0,2,2,2,1,3,stimuli/bead_g.PNG,stimuli/bead_b.PNG,stimuli/bead_b.PNG,stimuli/blank.jpg,stimuli/blank.jpg,0,1,left,,,,,,,,,,,,,,,,,,,,,,,,
,,,matt_test,2023-10-10_14h24.49.215,Fish_Game,2023.1.3,Win32,60.25911419,,,,left,0.2158,,1,0,3,3,3,1,4,stimuli/bead_b.PNG,stimuli/bead_g.PNG,stimuli/bead_b.PNG,stimuli/bead_b.PNG,stimuli/blank.jpg,0,1,left,,,,,,,,,,,,,,,,,,,,,,,,
,,,matt_test,2023-10-10_14h24.49.215,Fish_Game,2023.1.3,Win32,60.25911419,,,,left,0.3513,,1,0,4,4,4,1,5,stimuli/bead_b.PNG,stimuli/bead_b.PNG,stimuli/bead_g.PNG,stimuli/bead_b.PNG,stimuli/bead_b.PNG,0,1,left,,,,,,,,,,,,,,,,,,,,,,,,
,,,matt_test,2023-10-10_14h24.49.215,Fish_Game,2023.1.3,Win32,60.25911419,,,,left,0.8036,,1,0,5,5,5,1,6,stimuli/bead_y.PNG,stimuli/bead_b.PNG,stimuli/bead_b.PNG,stimuli/bead_g.PNG,stimuli/bead_b.PNG,0,1,left,,,,,,,,,,,,,,,,,,,,,,,,
,,,matt_test,2023-10-10_14h24.49.215,Fish_Game,2023.1.3,Win32,60.25911419,,,,left,0.4681,,1,0,6,6,6,1,7,stimuli/bead_b.PNG,stimuli/bead_y.PNG,stimuli/bead_b.PNG,stimuli/bead_b.PNG,stimuli/bead_g.PNG,0,1,left,,,,,,,,,,,,,,,,,,,,,,,,
,,,matt_test,2023-10-10_14h24.49.215,Fish_Game,2023.1.3,Win32,60.25911419,,,,left,3.3702,,0,0,7,7,7,1,8,stimuli/bead_y.PNG,stimuli/bead_b.PNG,stimuli/bead_y.PNG,stimuli/bead_b.PNG,stimuli/bead_b.PNG,1,2,up,,,,,,,,,,,,,,,,,,,,,,,,
,,,matt_test,2023-10-10_14h24.49.215,Fish_Game,2023.1.3,Win32,60.25911419,,,,up,1.6583,,1,0,8,8,8,1,9,stimuli/bead_y.PNG,stimuli/bead_y.PNG,stimuli/bead_b.PNG,stimuli/bead_y.PNG,stimuli/bead_b.PNG,1,2,up,,,,,,,,,,,,,,,,,,,,,,,,
,,,matt_test,2023-10-10_14h24.49.215,Fish_Game,2023.1.3,Win32,60.25911419,,,,up,1.6509,,1,0,9,9,9,1,10,stimuli/bead_b.PNG,stimuli/bead_y.PNG,stimuli/bead_y.PNG,stimuli/bead_b.PNG,stimuli/bead_y.PNG,1,2,up,,,,,,,,,,,,,,,,,,,,,,,,
,,,matt_test,2023-10-10_14h24.49.215,Fish_Game,2023.1.3,Win32,60.25911419,,,,up,1.6857,,1,0,10,10,10,1,11,stimuli/bead_y.PNG,stimuli/bead_b.PNG,stimuli/bead_y.PNG,stimuli/bead_y.PNG,stimuli/bead_b.PNG,1,2,up,,,,,,,,,,,,,,,,,,,,,,,,
,,,matt_test,2023-10-10_14h24.49.215,Fish_Game,2023.1.3,Win32,60.25911419,,,,up,1.27,,1,0,11,11,11,1,12,stimuli/bead_y.PNG,stimuli/bead_y.PNG,stimuli/bead_b.PNG,stimuli/bead_y.PNG,stimuli/bead_y.PNG,1,2,up,,,,,,,,,,,,,,,,,,,,,,,,
,,,matt_test,2023-10-10_14h24.49.215,Fish_Game,2023.1.3,Win32,60.25911419,,,,up,2.0193,,1,0,12,12,12,1,13,stimuli/bead_b.PNG,stimuli/bead_y.PNG,stimuli/bead_y.PNG,stimuli/bead_b.PNG,stimuli/bead_y.PNG,1,2,up,,,,,,,,,,,,,,,,,,,,,,,,
,,,matt_test,2023-10-10_14h24.49.215,Fish_Game,2023.1.3,Win32,60.25911419,,,,up,0.5851,,1,0,13,13,13,1,14,stimuli/bead_y.PNG,stimuli/bead_b.PNG,stimuli/bead_y.PNG,stimuli/bead_y.PNG,stimuli/bead_b.PNG,1,2,up,,,,,,,,,,,,,,,,,,,,,,,,
,,,matt_test,2023-10-10_14h24.49.215,Fish_Game,2023.1.3,Win32,60.25911419,,,,up,0.3921,,1,0,14,14,14,1,15,stimuli/bead_y.PNG,stimuli/bead_y.PNG,stimuli/bead_b.PNG,stimuli/bead_y.PNG,stimuli/bead_y.PNG,1,2,up,,,,,,,,,,,,,,,,,,,,,,,,
,,,matt_test,2023-10-10_14h24.49.215,Fish_Game,2023.1.3,Win32,60.25911419,,,,right,1.5407,,1,0,0,0,0,1,1,stimuli/bead_g.PNG,stimuli/blank.jpg,stimuli/blank.jpg,stimuli/blank.jpg,stimuli/blank.jpg,2,3,right,,,,,,,,,,,,,,,,,,,,,,,,
,,,matt_test,2023-10-10_14h24.49.215,Fish_Game,2023.1.3,Win32,60.25911419,,,,right,0.3679,,1,0,1,1,1,1,2,stimuli/bead_g.PNG,stimuli/bead_g.PNG,stimuli/blank.jpg,stimuli/blank.jpg,stimuli/blank.jpg,2,3,right,,,,,,,,,,,,,,,,,,,,,,,,
,,,matt_test,2023-10-10_14h24.49.215,Fish_Game,2023.1.3,Win32,60.25911419,,,,right,0.7495,,1,0,2,2,2,1,3,stimuli/bead_b.PNG,stimuli/bead_g.PNG,stimuli/bead_g.PNG,stimuli/blank.jpg,stimuli/blank.jpg,2,3,right,,,,,,,,,,,,,,,,,,,,,,,,
,,,matt_test,2023-10-10_14h24.49.215,Fish_Game,2023.1.3,Win32,60.25911419,,,,right,0.7179,,1,0,3,3,3,1,4,stimuli/bead_g.PNG,stimuli/bead_b.PNG,stimuli/bead_g.PNG,stimuli/bead_g.PNG,stimuli/blank.jpg,2,3,right,,,,,,,,,,,,,,,,,,,,,,,,
,,,matt_test,2023-10-10_14h24.49.215,Fish_Game,2023.1.3,Win32,60.25911419,,,,right,0.6561,,1,0,4,4,4,1,5,stimuli/bead_b.PNG,stimuli/bead_g.PNG,stimuli/bead_b.PNG,stimuli/bead_g.PNG,stimuli/bead_g.PNG,2,3,right,,,,,,,,,,,,,,,,,,,,,,,,
,,,matt_test,2023-10-10_14h24.49.215,Fish_Game,2023.1.3,Win32,60.25911419,,,,right,0.3708,,1,0,5,5,5,1,6,stimuli/bead_g.PNG,stimuli/bead_b.PNG,stimuli/bead_g.PNG,stimuli/bead_b.PNG,stimuli/bead_g.PNG,2,3,right,,,,,,,,,,,,,,,,,,,,,,,,
,,,matt_test,2023-10-10_14h24.49.215,Fish_Game,2023.1.3,Win32,60.25911419,,,,right,0.3828,,1,0,6,6,6,1,7,stimuli/bead_g.PNG,stimuli/bead_g.PNG,stimuli/bead_b.PNG,stimuli/bead_g.PNG,stimuli/bead_b.PNG,2,3,right,,,,,,,,,,,,,,,,,,,,,,,,
,,,matt_test,2023-10-10_14h24.49.215,Fish_Game,2023.1.3,Win32,60.25911419,,,,right,0.3506,,1,0,7,7,7,1,8,stimuli/bead_g.PNG,stimuli/bead_g.PNG,stimuli/bead_g.PNG,stimuli/bead_b.PNG,stimuli/bead_g.PNG,2,3,right,,,,,,,,,,,,,,,,,,,,,,,,
,,,matt_test,2023-10-10_14h24.49.215,Fish_Game,2023.1.3,Win32,60.25911419,,,,right,0.5675,,0,0,8,8,8,1,9,stimuli/bead_y.PNG,stimuli/bead_g.PNG,stimuli/bead_g.PNG,stimuli/bead_g.PNG,stimuli/bead_b.PNG,1,2,up,,,,,,,,,,,,,,,,,,,,,,,,
,,,matt_test,2023-10-10_14h24.49.215,Fish_Game,2023.1.3,Win32,60.25911419,,,,up,0.4237,,1,0,9,9,9,1,10,stimuli/bead_y.PNG,stimuli/bead_y.PNG,stimuli/bead_g.PNG,stimuli/bead_g.PNG,stimuli/bead_g.PNG,1,2,up,,,,,,,,,,,,,,,,,,,,,,,,
,,,matt_test,2023-10-10_14h24.49.215,Fish_Game,2023.1.3,Win32,60.25911419,,,,up,1.1673,,1,0,10,10,10,1,11,stimuli/bead_y.PNG,stimuli/bead_y.PNG,stimuli/bead_y.PNG,stimuli/bead_g.PNG,stimuli/bead_g.PNG,1,2,up,,,,,,,,,,,,,,,,,,,,,,,,
,,,matt_test,2023-10-10_14h24.49.215,Fish_Game,2023.1.3,Win32,60.25911419,,,,up,0.7673,,1,0,11,11,11,1,12,stimuli/bead_g.PNG,stimuli/bead_y.PNG,stimuli/bead_y.PNG,stimuli/bead_y.PNG,stimuli/bead_g.PNG,1,2,up,,,,,,,,,,,,,,,,,,,,,,,,
,,,matt_test,2023-10-10_14h24.49.215,Fish_Game,2023.1.3,Win32,60.25911419,,,,up,0.7344,,1,0,12,12,12,1,13,stimuli/bead_y.PNG,stimuli/bead_g.PNG,stimuli/bead_y.PNG,stimuli/bead_y.PNG,stimuli/bead_y.PNG,1,2,up,,,,,,,,,,,,,,,,,,,,,,,,
,,,matt_test,2023-10-10_14h24.49.215,Fish_Game,2023.1.3,Win32,60.25911419,,,,up,0.367,,1,0,13,13,13,1,14,stimuli/bead_y.PNG,stimuli/bead_y.PNG,stimuli/bead_g.PNG,stimuli/bead_y.PNG,stimuli/bead_y.PNG,1,2,up,,,,,,,,,,,,,,,,,,,,,,,,
,,,matt_test,2023-10-10_14h24.49.215,Fish_Game,2023.1.3,Win32,60.25911419,,,,up,0.7012,,1,0,14,14,14,1,15,stimuli/bead_b.PNG,stimuli/bead_y.PNG,stimuli/bead_y.PNG,stimuli/bead_g.PNG,stimuli/bead_y.PNG,1,2,up,,,,,,,,,,,,,,,,,,,,,,,,
,,,matt_test,2023-10-10_14h24.49.215,Fish_Game,2023.1.3,Win32,60.25911419,,,,,,,,,,,,,1,,,,,,,,,space,1.2345,,1,1condition/mainTrials10.xlsx,up,0.6498,,0,1.5,301.3978,0,0,0,0,1,stimuli/bead_y.PNG,stimuli/blank.jpg,stimuli/blank.jpg,stimuli/blank.jpg,stimuli/blank.jpg,0,1,left
,,,matt_test,2023-10-10_14h24.49.215,Fish_Game,2023.1.3,Win32,60.25911419,,,,,,,,,,,,,2,,,,,,,,,,,,,,up,0.9088,,0,0.5,303.3298,0,1,1,1,1,stimuli/bead_b.PNG,stimuli/bead_y.PNG,stimuli/blank.jpg,stimuli/blank.jpg,stimuli/blank.jpg,0,1,left
,,,matt_test,2023-10-10_14h24.49.215,Fish_Game,2023.1.3,Win32,60.25911419,,,,,,,,,,,,,3,,,,,,,,,,,,,,left,0.6663,,1,1.5,306.0239,0,2,2,2,1,stimuli/bead_b.PNG,stimuli/bead_b.PNG,stimuli/bead_y.PNG,stimuli/blank.jpg,stimuli/blank.jpg,0,1,left
,,,matt_test,2023-10-10_14h24.49.215,Fish_Game,2023.1.3,Win32,60.25911419,,,,,,,,,,,,,4,,,,,,,,,,,,,,left,0.3183,,1,1.5,308.3509,0,3,3,3,1,stimuli/bead_b.PNG,stimuli/bead_b.PNG,stimuli/bead_b.PNG,stimuli/bead_y.PNG,stimuli/blank.jpg,0,1,left
,,,matt_test,2023-10-10_14h24.49.215,Fish_Game,2023.1.3,Win32,60.25911419,,,,,,,,,,,,,5,,,,,,,,,,,,,,left,0.411,,1,1.5,310.7783,0,4,4,4,1,stimuli/bead_b.PNG,stimuli/bead_b.PNG,stimuli/bead_b.PNG,stimuli/bead_b.PNG,stimuli/bead_y.PNG,0,1,left
,,,matt_test,2023-10-10_14h24.49.215,Fish_Game,2023.1.3,Win32,60.25911419,,,,,,,,,,,,,6,,,,,,,,,,,,,,left,0.6871,,1,0.5,312.4875,0,5,5,5,1,stimuli/bead_g.PNG,stimuli/bead_b.PNG,stimuli/bead_b.PNG,stimuli/bead_b.PNG,stimuli/bead_b.PNG,0,1,left
,,,matt_test,2023-10-10_14h24.49.215,Fish_Game,2023.1.3,Win32,60.25911419,,,,,,,,,,,,,7,,,,,,,,,,,,,,left,0.3726,,1,1,314.3894,0,6,6,6,1,stimuli/bead_b.PNG,stimuli/bead_g.PNG,stimuli/bead_b.PNG,stimuli/bead_b.PNG,stimuli/bead_b.PNG,0,1,left
,,,matt_test,2023-10-10_14h24.49.215,Fish_Game,2023.1.3,Win32,60.25911419,,,,,,,,,,,,,8,,,,,,,,,,,,,,left,0.4359,,1,0.5,315.8406,0,7,7,7,1,stimuli/bead_b.PNG,stimuli/bead_b.PNG,stimuli/bead_g.PNG,stimuli/bead_b.PNG,stimuli/bead_b.PNG,0,1,left
,,,matt_test,2023-10-10_14h24.49.215,Fish_Game,2023.1.3,Win32,60.25911419,,,,,,,,,,,,,9,,,,,,,,,,,,,,left,1.0701,,1,1.5,318.9431,0,8,8,8,1,stimuli/bead_y.PNG,stimuli/bead_b.PNG,stimuli/bead_b.PNG,stimuli/bead_g.PNG,stimuli/bead_b.PNG,0,1,left
,,,matt_test,2023-10-10_14h24.49.215,Fish_Game,2023.1.3,Win32,60.25911419,,,,,,,,,,,,,10,,,,,,,,,,,,,,left,0.6403,,1,0.5,320.6126,0,9,9,9,1,stimuli/bead_b.PNG,stimuli/bead_y.PNG,stimuli/bead_b.PNG,stimuli/bead_b.PNG,stimuli/bead_g.PNG,0,1,left
,,,matt_test,2023-10-10_14h24.49.215,Fish_Game,2023.1.3,Win32,60.25911419,,,,,,,,,,,,,11,,,,,,,,,,,,,,left,0.7182,,0,1,322.865,0,10,10,10,1,stimuli/bead_g.PNG,stimuli/bead_b.PNG,stimuli/bead_y.PNG,stimuli/bead_b.PNG,stimuli/bead_b.PNG,2,3,right
,,,matt_test,2023-10-10_14h24.49.215,Fish_Game,2023.1.3,Win32,60.25911419,,,,,,,,,,,,,12,,,,,,,,,,,,,,left,0.5397,,0,1,324.9315,0,11,11,11,1,stimuli/bead_b.PNG,stimuli/bead_g.PNG,stimuli/bead_b.PNG,stimuli/bead_y.PNG,stimuli/bead_b.PNG,2,3,right
,,,matt_test,2023-10-10_14h24.49.215,Fish_Game,2023.1.3,Win32,60.25911419,,,,,,,,,,,,,13,,,,,,,,,,,,,,right,1.7686,,1,1,328.2362,0,12,12,12,1,stimuli/bead_g.PNG,stimuli/bead_b.PNG,stimuli/bead_g.PNG,stimuli/bead_b.PNG,stimuli/bead_y.PNG,2,3,right
,,,matt_test,2023-10-10_14h24.49.215,Fish_Game,2023.1.3,Win32,60.25911419,,,,,,,,,,,,,14,,,,,,,,,,,,,,right,0.3384,,1,1.5,330.5863,0,13,13,13,1,stimuli/bead_g.PNG,stimuli/bead_g.PNG,stimuli/bead_b.PNG,stimuli/bead_g.PNG,stimuli/bead_b.PNG,2,3,right
,,,matt_test,2023-10-10_14h24.49.215,Fish_Game,2023.1.3,Win32,60.25911419,,,,,,,,,,,,,15,,,,,,,,,,,,,,right,0.2953,,1,1.5,332.9045,0,14,14,14,1,stimuli/bead_g.PNG,stimuli/bead_g.PNG,stimuli/bead_g.PNG,stimuli/bead_b.PNG,stimuli/bead_g.PNG,2,3,right
,,,matt_test,2023-10-10_14h24.49.215,Fish_Game,2023.1.3,Win32,60.25911419,,,,,,,,,,,,,1,,,,,,,,,,,,2,1condition/mainTrials2.xlsx,up,0.6896,,1,1.5,340.6461,0,0,0,0,1,stimuli/bead_y.PNG,stimuli/blank.jpg,stimuli/blank.jpg,stimuli/blank.jpg,stimuli/blank.jpg,1,2,up
,,,matt_test,2023-10-10_14h24.49.215,Fish_Game,2023.1.3,Win32,60.25911419,,,,,,,,,,,,,2,,,,,,,,,,,,,,up,0.4027,,1,1.5,343.0799,0,1,1,1,1,stimuli/bead_b.PNG,stimuli/bead_y.PNG,stimuli/blank.jpg,stimuli/blank.jpg,stimuli/blank.jpg,1,2,up
,,,matt_test,2023-10-10_14h24.49.215,Fish_Game,2023.1.3,Win32,60.25911419,,,,,,,,,,,,,3,,,,,,,,,,,,,,up,0.5215,,1,0.5,344.6331,0,2,2,2,1,stimuli/bead_y.PNG,stimuli/bead_b.PNG,stimuli/bead_y.PNG,stimuli/blank.jpg,stimuli/blank.jpg,1,2,up
,,,matt_test,2023-10-10_14h24.49.215,Fish_Game,2023.1.3,Win32,60.25911419,,,,,,,,,,,,,4,,,,,,,,,,,,,,up,0.3514,,1,0.5,345.9991,0,3,3,3,1,stimuli/bead_y.PNG,stimuli/bead_y.PNG,stimuli/bead_b.PNG,stimuli/bead_y.PNG,stimuli/blank.jpg,1,2,up
,,,matt_test,2023-10-10_14h24.49.215,Fish_Game,2023.1.3,Win32,60.25911419,,,,,,,,,,,,,5,,,,,,,,,,,,,,up,0.08,,1,1,347.6057,0,4,4,4,1,stimuli/bead_g.PNG,stimuli/bead_y.PNG,stimuli/bead_y.PNG,stimuli/bead_b.PNG,stimuli/bead_y.PNG,1,2,up
,,,matt_test,2023-10-10_14h24.49.215,Fish_Game,2023.1.3,Win32,60.25911419,,,,,,,,,,,,,6,,,,,,,,,,,,,,up,0.3747,,1,0.5,349.0191,0,5,5,5,1,stimuli/bead_y.PNG,stimuli/bead_g.PNG,stimuli/bead_y.PNG,stimuli/bead_y.PNG,stimuli/bead_b.PNG,1,2,up
,,,matt_test,2023-10-10_14h24.49.215,Fish_Game,2023.1.3,Win32,60.25911419,,,,,,,,,,,,,7,,,,,,,,,,,,,,up,0.3337,,0,1,350.8879,0,6,6,6,1,stimuli/bead_b.PNG,stimuli/bead_y.PNG,stimuli/bead_g.PNG,stimuli/bead_y.PNG,stimuli/bead_y.PNG,0,1,left
,,,matt_test,2023-10-10_14h24.49.215,Fish_Game,2023.1.3,Win32,60.25911419,,,,,,,,,,,,,8,,,,,,,,,,,,,,left,0.7387,,1,1,353.1546,0,7,7,7,1,stimuli/bead_b.PNG,stimuli/bead_b.PNG,stimuli/bead_y.PNG,stimuli/bead_g.PNG,stimuli/bead_y.PNG,0,1,left
,,,matt_test,2023-10-10_14h24.49.215,Fish_Game,2023.1.3,Win32,60.25911419,,,,,,,,,,,,,9,,,,,,,,,,,,,,left,0.2835,,1,1,354.9648,0,8,8,8,1,stimuli/bead_y.PNG,stimuli/bead_b.PNG,stimuli/bead_b.PNG,stimuli/bead_y.PNG,stimuli/bead_g.PNG,0,1,left
,,,matt_test,2023-10-10_14h24.49.215,Fish_Game,2023.1.3,Win32,60.25911419,,,,,,,,,,,,,10,,,,,,,,,,,,,,left,0.3353,,1,1,356.8261,0,9,9,9,1,stimuli/bead_b.PNG,stimuli/bead_y.PNG,stimuli/bead_b.PNG,stimuli/bead_b.PNG,stimuli/bead_y.PNG,0,1,left
,,,matt_test,2023-10-10_14h24.49.215,Fish_Game,2023.1.3,Win32,60.25911419,,,,,,,,,,,,,11,,,,,,,,,,,,,,left,0.367,,1,0.5,358.2171,0,10,10,10,1,stimuli/bead_b.PNG,stimuli/bead_b.PNG,stimuli/bead_y.PNG,stimuli/bead_b.PNG,stimuli/bead_b.PNG,0,1,left
,,,matt_test,2023-10-10_14h24.49.215,Fish_Game,2023.1.3,Win32,60.25911419,,,,,,,,,,,,,12,,,,,,,,,,,,,,left,0.0501,,1,0.5,359.2775,0,11,11,11,1,stimuli/bead_b.PNG,stimuli/bead_b.PNG,stimuli/bead_b.PNG,stimuli/bead_y.PNG,stimuli/bead_b.PNG,0,1,left
,,,matt_test,2023-10-10_14h24.49.215,Fish_Game,2023.1.3,Win32,60.25911419,,,,,,,,,,,,,13,,,,,,,,,,,,,,left,0.0069,,1,1,360.8127,0,12,12,12,1,stimuli/bead_g.PNG,stimuli/bead_b.PNG,stimuli/bead_b.PNG,stimuli/bead_b.PNG,stimuli/bead_y.PNG,0,1,left
,,,matt_test,2023-10-10_14h24.49.215,Fish_Game,2023.1.3,Win32,60.25911419,,,,,,,,,,,,,14,,,,,,,,,,,,,,left,0.0357,,1,0.5,361.897,0,13,13,13,1,stimuli/bead_b.PNG,stimuli/bead_g.PNG,stimuli/bead_b.PNG,stimuli/bead_b.PNG,stimuli/bead_b.PNG,0,1,left
,,,matt_test,2023-10-10_14h24.49.215,Fish_Game,2023.1.3,Win32,60.25911419,,,,,,,,,,,,,15,,,,,,,,,,,,,,left,0.1303,,1,0.5,363.0462,0,14,14,14,1,stimuli/bead_b.PNG,stimuli/bead_b.PNG,stimuli/bead_g.PNG,stimuli/bead_b.PNG,stimuli/bead_b.PNG,0,1,left
,,,matt_test,2023-10-10_14h24.49.215,Fish_Game,2023.1.3,Win32,60.25911419,,,,,,,,,,,,,1,,,,,,,,,,,,3,1condition/mainTrials8.xlsx,up,0.7685,,0,1,370.3372,0,0,0,0,1,stimuli/bead_y.PNG,stimuli/blank.jpg,stimuli/blank.jpg,stimuli/blank.jpg,stimuli/blank.jpg,0,1,left
,,,matt_test,2023-10-10_14h24.49.215,Fish_Game,2023.1.3,Win32,60.25911419,,,,,,,,,,,,,2,,,,,,,,,,,,,,up,0.6033,,0,1,372.4727,0,1,1,1,1,stimuli/bead_b.PNG,stimuli/bead_y.PNG,stimuli/blank.jpg,stimuli/blank.jpg,stimuli/blank.jpg,0,1,left
,,,matt_test,2023-10-10_14h24.49.215,Fish_Game,2023.1.3,Win32,60.25911419,,,,,,,,,,,,,3,,,,,,,,,,,,,,up,1.035,,0,1.5,375.5415,0,2,2,2,1,stimuli/bead_g.PNG,stimuli/bead_b.PNG,stimuli/bead_y.PNG,stimuli/blank.jpg,stimuli/blank.jpg,0,1,left
,,,matt_test,2023-10-10_14h24.49.215,Fish_Game,2023.1.3,Win32,60.25911419,,,,,,,,,,,,,4,,,,,,,,,,,,,,left,0.7509,,1,1.5,378.3181,0,3,3,3,1,stimuli/bead_b.PNG,stimuli/bead_g.PNG,stimuli/bead_b.PNG,stimuli/bead_y.PNG,stimuli/blank.jpg,0,1,left
,,,matt_test,2023-10-10_14h24.49.215,Fish_Game,2023.1.3,Win32,60.25911419,,,,,,,,,,,,,5,,,,,,,,,,,,,,left,0.335,,1,1,380.1947,0,4,4,4,1,stimuli/bead_b.PNG,stimuli/bead_b.PNG,stimuli/bead_g.PNG,stimuli/bead_b.PNG,stimuli/bead_y.PNG,0,1,left
,,,matt_test,2023-10-10_14h24.49.215,Fish_Game,2023.1.3,Win32,60.25911419,,,,,,,,,,,,,6,,,,,,,,,,,,,,left,0.166,,1,0.5,381.3787,0,5,5,5,1,stimuli/bead_b.PNG,stimuli/bead_b.PNG,stimuli/bead_b.PNG,stimuli/bead_g.PNG,stimuli/bead_b.PNG,0,1,left
,,,matt_test,2023-10-10_14h24.49.215,Fish_Game,2023.1.3,Win32,60.25911419,,,,,,,,,,,,,7,,,,,,,,,,,,,,left,0.0841,,1,1,382.9978,0,6,6,6,1,stimuli/bead_g.PNG,stimuli/bead_b.PNG,stimuli/bead_b.PNG,stimuli/bead_b.PNG,stimuli/bead_g.PNG,0,1,left
,,,matt_test,2023-10-10_14h24.49.215,Fish_Game,2023.1.3,Win32,60.25911419,,,,,,,,,,,,,8,,,,,,,,,,,,,,left,0.1022,,1,1,384.6476,0,7,7,7,1,stimuli/bead_b.PNG,stimuli/bead_g.PNG,stimuli/bead_b.PNG,stimuli/bead_b.PNG,stimuli/bead_b.PNG,0,1,left
,,,matt_test,2023-10-10_14h24.49.215,Fish_Game,2023.1.3,Win32,60.25911419,,,,,,,,,,,,,9,,,,,,,,,,,,,,left,0.1078,,1,1,386.2821,0,8,8,8,1,stimuli/bead_y.PNG,stimuli/bead_b.PNG,stimuli/bead_g.PNG,stimuli/bead_b.PNG,stimuli/bead_b.PNG,0,1,left
,,,matt_test,2023-10-10_14h24.49.215,Fish_Game,2023.1.3,Win32,60.25911419,,,,,,,,,,,,,10,,,,,,,,,,,,,,left,0.1669,,1,0.5,387.4921,0,9,9,9,1,stimuli/bead_b.PNG,stimuli/bead_y.PNG,stimuli/bead_b.PNG,stimuli/bead_g.PNG,stimuli/bead_b.PNG,0,1,left
,,,matt_test,2023-10-10_14h24.49.215,Fish_Game,2023.1.3,Win32,60.25911419,,,,,,,,,,,,,11,,,,,,,,,,,,,,left,0.1673,,1,1.5,389.6869,0,10,10,10,1,stimuli/bead_b.PNG,stimuli/bead_b.PNG,stimuli/bead_y.PNG,stimuli/bead_b.PNG,stimuli/bead_g.PNG,0,1,left
,,,matt_test,2023-10-10_14h24.49.215,Fish_Game,2023.1.3,Win32,60.25911419,,,,,,,,,,,,,12,,,,,,,,,,,,,,left,0.1014,,0,1,391.3377,0,11,11,11,1,stimuli/bead_y.PNG,stimuli/bead_b.PNG,stimuli/bead_b.PNG,stimuli/bead_y.PNG,stimuli/bead_b.PNG,1,2,up
,,,matt_test,2023-10-10_14h24.49.215,Fish_Game,2023.1.3,Win32,60.25911419,,,,,,,,,,,,,13,,,,,,,,,,,,,,up,0.3585,,1,1.5,393.7059,0,12,12,12,1,stimuli/bead_y.PNG,stimuli/bead_y.PNG,stimuli/bead_b.PNG,stimuli/bead_b.PNG,stimuli/bead_y.PNG,1,2,up
,,,matt_test,2023-10-10_14h24.49.215,Fish_Game,2023.1.3,Win32,60.25911419,,,,,,,,,,,,,14,,,,,,,,,,,,,,up,0.0066,,1,1.5,395.7234,0,13,13,13,1,stimuli/bead_y.PNG,stimuli/bead_y.PNG,stimuli/bead_y.PNG,stimuli/bead_b.PNG,stimuli/bead_b.PNG,1,2,up
,,,matt_test,2023-10-10_14h24.49.215,Fish_Game,2023.1.3,Win32,60.25911419,,,,,,,,,,,,,15,,,,,,,,,,,,,,up,0.0333,,1,1,397.3085,0,14,14,14,1,stimuli/bead_g.PNG,stimuli/bead_y.PNG,stimuli/bead_y.PNG,stimuli/bead_y.PNG,stimuli/bead_b.PNG,1,2,up
,,,matt_test,2023-10-10_14h24.49.215,Fish_Game,2023.1.3,Win32,60.25911419,,,,,,,,,,,,,1,,,,,,,,,,,,4,1condition/mainTrials3.xlsx,up,0.6677,,1,0.5,404.0318,0,0,0,0,1,stimuli/bead_y.PNG,stimuli/blank.jpg,stimuli/blank.jpg,stimuli/blank.jpg,stimuli/blank.jpg,1,2,up
,,,matt_test,2023-10-10_14h24.49.215,Fish_Game,2023.1.3,Win32,60.25911419,,,,,,,,,,,,,2,,,,,,,,,,,,,,up,0.4217,,1,1,405.9655,0,1,1,1,1,stimuli/bead_y.PNG,stimuli/bead_y.PNG,stimuli/blank.jpg,stimuli/blank.jpg,stimuli/blank.jpg,1,2,up
,,,matt_test,2023-10-10_14h24.49.215,Fish_Game,2023.1.3,Win32,60.25911419,,,,,,,,,,,,,3,,,,,,,,,,,,,,up,0.5181,,1,1,408.0185,0,2,2,2,1,stimuli/bead_b.PNG,stimuli/bead_y.PNG,stimuli/bead_y.PNG,stimuli/blank.jpg,stimuli/blank.jpg,1,2,up
,,,matt_test,2023-10-10_14h24.49.215,Fish_Game,2023.1.3,Win32,60.25911419,,,,,,,,,,,,,4,,,,,,,,,,,,,,up,0.1568,,1,1.5,410.203,0,3,3,3,1,stimuli/bead_y.PNG,stimuli/bead_b.PNG,stimuli/bead_y.PNG,stimuli/bead_y.PNG,stimuli/blank.jpg,1,2,up
,,,matt_test,2023-10-10_14h24.49.215,Fish_Game,2023.1.3,Win32,60.25911419,,,,,,,,,,,,,5,,,,,,,,,,,,,,up,0.0731,,1,1,411.8044,0,4,4,4,1,stimuli/bead_y.PNG,stimuli/bead_y.PNG,stimuli/bead_b.PNG,stimuli/bead_y.PNG,stimuli/bead_y.PNG,1,2,up
,,,matt_test,2023-10-10_14h24.49.215,Fish_Game,2023.1.3,Win32,60.25911419,,,,,,,,,,,,,6,,,,,,,,,,,,,,up,0.1025,,1,0.5,412.923,0,5,5,5,1,stimuli/bead_y.PNG,stimuli/bead_y.PNG,stimuli/bead_y.PNG,stimuli/bead_b.PNG,stimuli/bead_y.PNG,1,2,up
,,,matt_test,2023-10-10_14h24.49.215,Fish_Game,2023.1.3,Win32,60.25911419,,,,,,,,,,,,,7,,,,,,,,,,,,,,up,0.0006,,1,1.5,414.9489,0,6,6,6,1,stimuli/bead_b.PNG,stimuli/bead_y.PNG,stimuli/bead_y.PNG,stimuli/bead_y.PNG,stimuli/bead_b.PNG,1,2,up
,,,matt_test,2023-10-10_14h24.49.215,Fish_Game,2023.1.3,Win32,60.25911419,,,,,,,,,,,,,8,,,,,,,,,,,,,,up,0.0073,,1,1,416.4909,0,7,7,7,1,stimuli/bead_y.PNG,stimuli/bead_b.PNG,stimuli/bead_y.PNG,stimuli/bead_y.PNG,stimuli/bead_y.PNG,1,2,up
,,,matt_test,2023-10-10_14h24.49.215,Fish_Game,2023.1.3,Win32,60.25911419,,,,,,,,,,,,,9,,,,,,,,,,,,,,up,0.1417,,1,0.5,417.6584,0,8,8,8,1,stimuli/bead_y.PNG,stimuli/bead_y.PNG,stimuli/bead_b.PNG,stimuli/bead_y.PNG,stimuli/bead_y.PNG,1,2,up
,,,matt_test,2023-10-10_14h24.49.215,Fish_Game,2023.1.3,Win32,60.25911419,,,,,,,,,,,,,10,,,,,,,,,,,,,,up,0.0879,,1,1,419.2932,0,9,9,9,1,stimuli/bead_g.PNG,stimuli/bead_y.PNG,stimuli/bead_y.PNG,stimuli/bead_b.PNG,stimuli/bead_y.PNG,1,2,up
,,,matt_test,2023-10-10_14h24.49.215,Fish_Game,2023.1.3,Win32,60.25911419,,,,,,,,,,,,,11,,,,,,,,,,,,,,right,0.0005,,0,1,420.8365,0,10,10,10,1,stimuli/bead_y.PNG,stimuli/bead_g.PNG,stimuli/bead_y.PNG,stimuli/bead_y.PNG,stimuli/bead_b.PNG,1,2,up
,,,matt_test,2023-10-10_14h24.49.215,Fish_Game,2023.1.3,Win32,60.25911419,,,,,,,,,,,,,12,,,,,,,,,,,,,,up,0.0339,,1,1,422.3969,0,11,11,11,1,stimuli/bead_g.PNG,stimuli/bead_y.PNG,stimuli/bead_g.PNG,stimuli/bead_y.PNG,stimuli/bead_y.PNG,1,2,up
,,,matt_test,2023-10-10_14h24.49.215,Fish_Game,2023.1.3,Win32,60.25911419,,,,,,,,,,,,,13,,,,,,,,,,,,,,right,0.4013,,0,1,424.3139,0,12,12,12,1,stimuli/bead_y.PNG,stimuli/bead_g.PNG,stimuli/bead_y.PNG,stimuli/bead_g.PNG,stimuli/bead_y.PNG,1,2,up
,,,matt_test,2023-10-10_14h24.49.215,Fish_Game,2023.1.3,Win32,60.25911419,,,,,,,,,,,,,14,,,,,,,,,,,,,,up,0.6854,,1,0.5,426.0331,0,13,13,13,1,stimuli/bead_y.PNG,stimuli/bead_y.PNG,stimuli/bead_g.PNG,stimuli/bead_y.PNG,stimuli/bead_g.PNG,1,2,up
,,,matt_test,2023-10-10_14h24.49.215,Fish_Game,2023.1.3,Win32,60.25911419,,,,,,,,,,,,,15,,,,,,,,,,,,,,up,0.1191,,1,1,427.6848,0,14,14,14,1,stimuli/bead_y.PNG,stimuli/bead_y.PNG,stimuli/bead_y.PNG,stimuli/bead_g.PNG,stimuli/bead_y.PNG,1,2,up
,,,matt_test,2023-10-10_14h24.49.215,Fish_Game,2023.1.3,Win32,60.25911419,,,,,,,,,,,,,1,,,,,,,,,,,,5,1condition/mainTrials1.xlsx,right,0.7675,,1,1,434.9898,0,0,0,0,1,stimuli/bead_g.PNG,stimuli/blank.jpg,stimuli/blank.jpg,stimuli/blank.jpg,stimuli/blank.jpg,2,3,right
,,,matt_test,2023-10-10_14h24.49.215,Fish_Game,2023.1.3,Win32,60.25911419,,,,,,,,,,,,,2,,,,,,,,,,,,,,right,0.5513,,1,1.5,437.5761,0,1,1,1,1,stimuli/bead_y.PNG,stimuli/bead_g.PNG,stimuli/blank.jpg,stimuli/blank.jpg,stimuli/blank.jpg,2,3,right
,,,matt_test,2023-10-10_14h24.49.215,Fish_Game,2023.1.3,Win32,60.25911419,,,,,,,,,,,,,3,,,,,,,,,,,,,,right,0.4337,,1,1.5,440.0523,0,2,2,2,1,stimuli/bead_g.PNG,stimuli/bead_y.PNG,stimuli/bead_g.PNG,stimuli/blank.jpg,stimuli/blank.jpg,2,3,right
,,,matt_test,2023-10-10_14h24.49.215,Fish_Game,2023.1.3,Win32,60.25911419,,,,,,,,,,,,,4,,,,,,,,,,,,,,right,0.1086,,1,0.5,441.1785,0,3,3,3,1,stimuli/bead_b.PNG,stimuli/bead_g.PNG,stimuli/bead_y.PNG,stimuli/bead_g.PNG,stimuli/blank.jpg,2,3,right
,,,matt_test,2023-10-10_14h24.49.215,Fish_Game,2023.1.3,Win32,60.25911419,,,,,,,,,,,,,5,,,,,,,,,,,,,,right,0.1338,,1,1,442.8383,0,4,4,4,1,stimuli/bead_g.PNG,stimuli/bead_b.PNG,stimuli/bead_g.PNG,stimuli/bead_y.PNG,stimuli/bead_g.PNG,2,3,right
,,,matt_test,2023-10-10_14h24.49.215,Fish_Game,2023.1.3,Win32,60.25911419,,,,,,,,,,,,,6,,,,,,,,,,,,,,right,0.0845,,1,1.5,444.9326,0,5,5,5,1,stimuli/bead_g.PNG,stimuli/bead_g.PNG,stimuli/bead_b.PNG,stimuli/bead_g.PNG,stimuli/bead_y.PNG,2,3,right
,,,matt_test,2023-10-10_14h24.49.215,Fish_Game,2023.1.3,Win32,60.25911419,,,,,,,,,,,,,7,,,,,,,,,,,,,,right,0.0687,,1,0.5,446.0321,0,6,6,6,1,stimuli/bead_g.PNG,stimuli/bead_g.PNG,stimuli/bead_g.PNG,stimuli/bead_b.PNG,stimuli/bead_g.PNG,2,3,right
,,,matt_test,2023-10-10_14h24.49.215,Fish_Game,2023.1.3,Win32,60.25911419,,,,,,,,,,,,,8,,,,,,,,,,,,,,right,0.0348,,1,1.5,448.0766,0,7,7,7,1,stimuli/bead_g.PNG,stimuli/bead_g.PNG,stimuli/bead_g.PNG,stimuli/bead_g.PNG,stimuli/bead_b.PNG,2,3,right
,,,matt_test,2023-10-10_14h24.49.215,Fish_Game,2023.1.3,Win32,60.25911419,,,,,,,,,,,,,9,,,,,,,,,,,,,,right,0.0006,,1,1,449.6113,0,8,8,8,1,stimuli/bead_b.PNG,stimuli/bead_g.PNG,stimuli/bead_g.PNG,stimuli/bead_g.PNG,stimuli/bead_g.PNG,2,3,right
,,,matt_test,2023-10-10_14h24.49.215,Fish_Game,2023.1.3,Win32,60.25911419,,,,,,,,,,,,,10,,,,,,,,,,,,,,right,0.1343,,1,0.5,450.786,0,9,9,9,1,stimuli/bead_g.PNG,stimuli/bead_b.PNG,stimuli/bead_g.PNG,stimuli/bead_g.PNG,stimuli/bead_g.PNG,2,3,right
,,,matt_test,2023-10-10_14h24.49.215,Fish_Game,2023.1.3,Win32,60.25911419,,,,,,,,,,,,,11,,,,,,,,,,,,,,right,0.127,,1,0.5,451.9123,0,10,10,10,1,stimuli/bead_g.PNG,stimuli/bead_g.PNG,stimuli/bead_b.PNG,stimuli/bead_g.PNG,stimuli/bead_g.PNG,2,3,right
,,,matt_test,2023-10-10_14h24.49.215,Fish_Game,2023.1.3,Win32,60.25911419,,,,,,,,,,,,,12,,,,,,,,,,,,,,right,0.1509,,1,0.5,453.0879,0,11,11,11,1,stimuli/bead_g.PNG,stimuli/bead_g.PNG,stimuli/bead_g.PNG,stimuli/bead_b.PNG,stimuli/bead_g.PNG,2,3,right
,,,matt_test,2023-10-10_14h24.49.215,Fish_Game,2023.1.3,Win32,60.25911419,,,,,,,,,,,,,13,,,,,,,,,,,,,,right,0.0396,,0,1,454.6579,0,12,12,12,1,stimuli/bead_b.PNG,stimuli/bead_g.PNG,stimuli/bead_g.PNG,stimuli/bead_g.PNG,stimuli/bead_b.PNG,0,1,left
,,,matt_test,2023-10-10_14h24.49.215,Fish_Game,2023.1.3,Win32,60.25911419,,,,,,,,,,,,,14,,,,,,,,,,,,,,right,0.0511,,0,1,456.2421,0,13,13,13,1,stimuli/bead_b.PNG,stimuli/bead_b.PNG,stimuli/bead_g.PNG,stimuli/bead_g.PNG,stimuli/bead_g.PNG,0,1,left
,,,matt_test,2023-10-10_14h24.49.215,Fish_Game,2023.1.3,Win32,60.25911419,,,,,,,,,,,,,15,,,,,,,,,,,,,,left,0.1539,,1,1,457.9168,0,14,14,14,1,stimuli/bead_b.PNG,stimuli/bead_b.PNG,stimuli/bead_b.PNG,stimuli/bead_g.PNG,stimuli/bead_g.PNG,0,1,left
,,,matt_test,2023-10-10_14h24.49.215,Fish_Game,2023.1.3,Win32,60.25911419,,,,,,,,,,,,,1,,,,,,,,,,,,6,1condition/mainTrials4.xlsx,right,1.0181,,1,1,465.4653,0,0,0,0,1,stimuli/bead_g.PNG,stimuli/blank.jpg,stimuli/blank.jpg,stimuli/blank.jpg,stimuli/blank.jpg,2,3,right
,,,matt_test,2023-10-10_14h24.49.215,Fish_Game,2023.1.3,Win32,60.25911419,,,,,,,,,,,,,2,,,,,,,,,,,,,,right,0.4347,,1,0.5,466.9425,0,1,1,1,1,stimuli/bead_g.PNG,stimuli/bead_g.PNG,stimuli/blank.jpg,stimuli/blank.jpg,stimuli/blank.jpg,2,3,right
,,,matt_test,2023-10-10_14h24.49.215,Fish_Game,2023.1.3,Win32,60.25911419,,,,,,,,,,,,,3,,,,,,,,,,,,,,right,0.1665,,1,0.5,468.1256,0,2,2,2,1,stimuli/bead_b.PNG,stimuli/bead_g.PNG,stimuli/bead_g.PNG,stimuli/blank.jpg,stimuli/blank.jpg,2,3,right
,,,matt_test,2023-10-10_14h24.49.215,Fish_Game,2023.1.3,Win32,60.25911419,,,,,,,,,,,,,4,,,,,,,,,,,,,,right,0.1536,,1,0.5,469.3031,0,3,3,3,1,stimuli/bead_g.PNG,stimuli/bead_b.PNG,stimuli/bead_g.PNG,stimuli/bead_g.PNG,stimuli/blank.jpg,2,3,right
,,,matt_test,2023-10-10_14h24.49.215,Fish_Game,2023.1.3,Win32,60.25911419,,,,,,,,,,,,,5,,,,,,,,,,,,,,right,0.1003,,1,1.5,471.4365,0,4,4,4,1,stimuli/bead_g.PNG,stimuli/bead_g.PNG,stimuli/bead_b.PNG,stimuli/bead_g.PNG,stimuli/bead_g.PNG,2,3,right
,,,matt_test,2023-10-10_14h24.49.215,Fish_Game,2023.1.3,Win32,60.25911419,,,,,,,,,,,,,6,,,,,,,,,,,,,,right,0.1703,,1,1.5,473.6395,0,5,5,5,1,stimuli/bead_y.PNG,stimuli/bead_g.PNG,stimuli/bead_g.PNG,stimuli/bead_b.PNG,stimuli/bead_g.PNG,2,3,right
,,,matt_test,2023-10-10_14h24.49.215,Fish_Game,2023.1.3,Win32,60.25911419,,,,,,,,,,,,,7,,,,,,,,,,,,,,right,0.0004,,1,1.5,475.6587,0,6,6,6,1,stimuli/bead_g.PNG,stimuli/bead_y.PNG,stimuli/bead_g.PNG,stimuli/bead_g.PNG,stimuli/bead_b.PNG,2,3,right
,,,matt_test,2023-10-10_14h24.49.215,Fish_Game,2023.1.3,Win32,60.25911419,,,,,,,,,,,,,8,,,,,,,,,,,,,,right,0.1006,,0,1.5,477.7915,0,7,7,7,1,stimuli/bead_y.PNG,stimuli/bead_g.PNG,stimuli/bead_y.PNG,stimuli/bead_g.PNG,stimuli/bead_g.PNG,1,2,up
,,,matt_test,2023-10-10_14h24.49.215,Fish_Game,2023.1.3,Win32,60.25911419,,,,,,,,,,,,,9,,,,,,,,,,,,,,right,0.0504,,0,1,479.3597,0,8,8,8,1,stimuli/bead_y.PNG,stimuli/bead_y.PNG,stimuli/bead_g.PNG,stimuli/bead_y.PNG,stimuli/bead_g.PNG,1,2,up
,,,matt_test,2023-10-10_14h24.49.215,Fish_Game,2023.1.3,Win32,60.25911419,,,,,,,,,,,,,10,,,,,,,,,,,,,,up,0.3513,,1,1,481.2369,0,9,9,9,1,stimuli/bead_g.PNG,stimuli/bead_y.PNG,stimuli/bead_y.PNG,stimuli/bead_g.PNG,stimuli/bead_y.PNG,1,2,up
,,,matt_test,2023-10-10_14h24.49.215,Fish_Game,2023.1.3,Win32,60.25911419,,,,,,,,,,,,,11,,,,,,,,,,,,,,up,0.0334,,1,1.5,483.2883,0,10,10,10,1,stimuli/bead_y.PNG,stimuli/bead_g.PNG,stimuli/bead_y.PNG,stimuli/bead_y.PNG,stimuli/bead_g.PNG,1,2,up
,,,matt_test,2023-10-10_14h24.49.215,Fish_Game,2023.1.3,Win32,60.25911419,,,,,,,,,,,,,12,,,,,,,,,,,,,,up,0.1017,,1,1.5,485.408,0,11,11,11,1,stimuli/bead_y.PNG,stimuli/bead_y.PNG,stimuli/bead_g.PNG,stimuli/bead_y.PNG,stimuli/bead_y.PNG,1,2,up
,,,matt_test,2023-10-10_14h24.49.215,Fish_Game,2023.1.3,Win32,60.25911419,,,,,,,,,,,,,13,,,,,,,,,,,,,,up,0.1168,,1,1.5,487.5422,0,12,12,12,1,stimuli/bead_b.PNG,stimuli/bead_y.PNG,stimuli/bead_y.PNG,stimuli/bead_g.PNG,stimuli/bead_y.PNG,1,2,up
,,,matt_test,2023-10-10_14h24.49.215,Fish_Game,2023.1.3,Win32,60.25911419,,,,,,,,,,,,,14,,,,,,,,,,,,,,up,0.05,,1,1.5,489.6193,0,13,13,13,1,stimuli/bead_y.PNG,stimuli/bead_b.PNG,stimuli/bead_y.PNG,stimuli/bead_y.PNG,stimuli/bead_g.PNG,1,2,up
,,,matt_test,2023-10-10_14h24.49.215,Fish_Game,2023.1.3,Win32,60.25911419,,,,,,,,,,,,,15,,,,,,,,,,,,,,up,0.033,,1,1.5,491.6623,0,14,14,14,1,stimuli/bead_y.PNG,stimuli/bead_y.PNG,stimuli/bead_b.PNG,stimuli/bead_y.PNG,stimuli/bead_y.PNG,1,2,up
,,,matt_test,2023-10-10_14h24.49.215,Fish_Game,2023.1.3,Win32,60.25911419,,,,,,,,,,,,,1,,,,,,,,,,,,7,1condition/mainTrials5.xlsx,left,0.5513,,1,0.5,498.2599,0,0,0,0,1,stimuli/bead_b.PNG,stimuli/blank.jpg,stimuli/blank.jpg,stimuli/blank.jpg,stimuli/blank.jpg,0,1,left
,,,matt_test,2023-10-10_14h24.49.215,Fish_Game,2023.1.3,Win32,60.25911419,,,,,,,,,,,,,2,,,,,,,,,,,,,,left,0.1006,,1,1.5,500.3772,0,1,1,1,1,stimuli/bead_b.PNG,stimuli/bead_b.PNG,stimuli/blank.jpg,stimuli/blank.jpg,stimuli/blank.jpg,0,1,left
,,,matt_test,2023-10-10_14h24.49.215,Fish_Game,2023.1.3,Win32,60.25911419,,,,,,,,,,,,,3,,,,,,,,,,,,,,left,0.0008,,1,0.5,501.4043,0,2,2,2,1,stimuli/bead_y.PNG,stimuli/bead_b.PNG,stimuli/bead_b.PNG,stimuli/blank.jpg,stimuli/blank.jpg,0,1,left
,,,matt_test,2023-10-10_14h24.49.215,Fish_Game,2023.1.3,Win32,60.25911419,,,,,,,,,,,,,4,,,,,,,,,,,,,,left,0.018,,1,1.5,503.4468,0,3,3,3,1,stimuli/bead_b.PNG,stimuli/bead_y.PNG,stimuli/bead_b.PNG,stimuli/bead_b.PNG,stimuli/blank.jpg,0,1,left
,,,matt_test,2023-10-10_14h24.49.215,Fish_Game,2023.1.3,Win32,60.25911419,,,,,,,,,,,,,5,,,,,,,,,,,,,,left,0.0237,,1,1.5,505.4994,0,4,4,4,1,stimuli/bead_b.PNG,stimuli/bead_b.PNG,stimuli/bead_y.PNG,stimuli/bead_b.PNG,stimuli/bead_b.PNG,0,1,left
,,,matt_test,2023-10-10_14h24.49.215,Fish_Game,2023.1.3,Win32,60.25911419,,,,,,,,,,,,,6,,,,,,,,,,,,,,left,0.29,,0,1,507.3013,0,5,5,5,1,stimuli/bead_g.PNG,stimuli/bead_b.PNG,stimuli/bead_b.PNG,stimuli/bead_y.PNG,stimuli/bead_b.PNG,2,3,right
,,,matt_test,2023-10-10_14h24.49.215,Fish_Game,2023.1.3,Win32,60.25911419,,,,,,,,,,,,,7,,,,,,,,,,,,,,left,0.1508,,0,1.5,509.4847,0,6,6,6,1,stimuli/bead_g.PNG,stimuli/bead_g.PNG,stimuli/bead_b.PNG,stimuli/bead_b.PNG,stimuli/bead_y.PNG,2,2,right
,,,matt_test,2023-10-10_14h24.49.215,Fish_Game,2023.1.3,Win32,60.25911419,,,,,,,,,,,,,8,,,,,,,,,,,,,,right,0.1724,,1,0.5,510.6694,0,7,7,7,1,stimuli/bead_b.PNG,stimuli/bead_g.PNG,stimuli/bead_g.PNG,stimuli/bead_b.PNG,stimuli/bead_b.PNG,2,2,right
,,,matt_test,2023-10-10_14h24.49.215,Fish_Game,2023.1.3,Win32,60.25911419,,,,,,,,,,,,,9,,,,,,,,,,,,,,right,0.618,,1,0.5,512.3135,0,8,8,8,1,stimuli/bead_g.PNG,stimuli/bead_b.PNG,stimuli/bead_g.PNG,stimuli/bead_g.PNG,stimuli/bead_b.PNG,2,2,right
,,,matt_test,2023-10-10_14h24.49.215,Fish_Game,2023.1.3,Win32,60.25911419,,,,,,,,,,,,,10,,,,,,,,,,,,,,right,0.1504,,1,1.5,514.4888,0,9,9,9,1,stimuli/bead_b.PNG,stimuli/bead_g.PNG,stimuli/bead_b.PNG,stimuli/bead_g.PNG,stimuli/bead_g.PNG,2,2,right
,,,matt_test,2023-10-10_14h24.49.215,Fish_Game,2023.1.3,Win32,60.25911419,,,,,,,,,,,,,11,,,,,,,,,,,,,,right,0.0007,,1,1.5,516.5161,0,10,10,10,1,stimuli/bead_g.PNG,stimuli/bead_b.PNG,stimuli/bead_g.PNG,stimuli/bead_b.PNG,stimuli/bead_g.PNG,2,2,right
,,,matt_test,2023-10-10_14h24.49.215,Fish_Game,2023.1.3,Win32,60.25911419,,,,,,,,,,,,,12,,,,,,,,,,,,,,right,0.1729,,1,0.5,517.7249,0,11,11,11,1,stimuli/bead_g.PNG,stimuli/bead_g.PNG,stimuli/bead_b.PNG,stimuli/bead_g.PNG,stimuli/bead_b.PNG,2,2,right
,,,matt_test,2023-10-10_14h24.49.215,Fish_Game,2023.1.3,Win32,60.25911419,,,,,,,,,,,,,13,,,,,,,,,,,,,,right,0.1212,,1,1,519.3762,0,12,12,12,1,stimuli/bead_g.PNG,stimuli/bead_g.PNG,stimuli/bead_g.PNG,stimuli/bead_b.PNG,stimuli/bead_g.PNG,2,3,right
,,,matt_test,2023-10-10_14h24.49.215,Fish_Game,2023.1.3,Win32,60.25911419,,,,,,,,,,,,,14,,,,,,,,,,,,,,right,0.1675,,1,1.5,521.5541,0,13,13,13,1,stimuli/bead_y.PNG,stimuli/bead_g.PNG,stimuli/bead_g.PNG,stimuli/bead_g.PNG,stimuli/bead_b.PNG,2,3,right
,,,matt_test,2023-10-10_14h24.49.215,Fish_Game,2023.1.3,Win32,60.25911419,,,,,,,,,,,,,15,,,,,,,,,,,,,,right,0.4344,,1,1.5,524.0136,0,14,14,14,1,stimuli/bead_g.PNG,stimuli/bead_y.PNG,stimuli/bead_g.PNG,stimuli/bead_g.PNG,stimuli/bead_g.PNG,2,3,right
,,,matt_test,2023-10-10_14h24.49.215,Fish_Game,2023.1.3,Win32,60.25911419,,,,,,,,,,,,,1,,,,,,,,,,,,8,1condition/mainTrials7.xlsx,up,0.5885,,1,1.5,531.6544,0,0,0,0,1,stimuli/bead_y.PNG,stimuli/blank.jpg,stimuli/blank.jpg,stimuli/blank.jpg,stimuli/blank.jpg,1,2,up
,,,matt_test,2023-10-10_14h24.49.215,Fish_Game,2023.1.3,Win32,60.25911419,,,,,,,,,,,,,2,,,,,,,,,,,,,,up,0.0006,,1,1,533.1805,0,1,1,1,1,stimuli/bead_y.PNG,stimuli/bead_y.PNG,stimuli/blank.jpg,stimuli/blank.jpg,stimuli/blank.jpg,1,2,up
,,,matt_test,2023-10-10_14h24.49.215,Fish_Game,2023.1.3,Win32,60.25911419,,,,,,,,,,,,,3,,,,,,,,,,,,,,up,0.0527,,1,0.5,534.2552,0,2,2,2,1,stimuli/bead_g.PNG,stimuli/bead_y.PNG,stimuli/bead_y.PNG,stimuli/blank.jpg,stimuli/blank.jpg,1,2,up
,,,matt_test,2023-10-10_14h24.49.215,Fish_Game,2023.1.3,Win32,60.25911419,,,,,,,,,,,,,4,,,,,,,,,,,,,,up,0.0334,,1,0.5,535.3073,0,3,3,3,1,stimuli/bead_y.PNG,stimuli/bead_g.PNG,stimuli/bead_y.PNG,stimuli/bead_y.PNG,stimuli/blank.jpg,1,2,up
,,,matt_test,2023-10-10_14h24.49.215,Fish_Game,2023.1.3,Win32,60.25911419,,,,,,,,,,,,,5,,,,,,,,,,,,,,up,0.144,,1,0.5,536.4903,0,4,4,4,1,stimuli/bead_y.PNG,stimuli/bead_y.PNG,stimuli/bead_g.PNG,stimuli/bead_y.PNG,stimuli/bead_y.PNG,1,2,up
,,,matt_test,2023-10-10_14h24.49.215,Fish_Game,2023.1.3,Win32,60.25911419,,,,,,,,,,,,,6,,,,,,,,,,,,,,up,0.1505,,1,1.5,538.6675,0,5,5,5,1,stimuli/bead_y.PNG,stimuli/bead_y.PNG,stimuli/bead_y.PNG,stimuli/bead_g.PNG,stimuli/bead_y.PNG,1,2,up
,,,matt_test,2023-10-10_14h24.49.215,Fish_Game,2023.1.3,Win32,60.25911419,,,,,,,,,,,,,7,,,,,,,,,,,,,,up,0.1169,,1,1.5,540.8117,0,6,6,6,1,stimuli/bead_b.PNG,stimuli/bead_y.PNG,stimuli/bead_y.PNG,stimuli/bead_y.PNG,stimuli/bead_g.PNG,1,2,up
,,,matt_test,2023-10-10_14h24.49.215,Fish_Game,2023.1.3,Win32,60.25911419,,,,,,,,,,,,,8,,,,,,,,,,,,,,up,0.4339,,1,1.5,543.28,0,7,7,7,1,stimuli/bead_y.PNG,stimuli/bead_b.PNG,stimuli/bead_y.PNG,stimuli/bead_y.PNG,stimuli/bead_y.PNG,1,2,up
,,,matt_test,2023-10-10_14h24.49.215,Fish_Game,2023.1.3,Win32,60.25911419,,,,,,,,,,,,,9,,,,,,,,,,,,,,up,0.0459,,0,1,544.8484,0,8,8,8,1,stimuli/bead_y.PNG,stimuli/bead_y.PNG,stimuli/bead_b.PNG,stimuli/bead_y.PNG,stimuli/bead_y.PNG,1,2,right
,,,matt_test,2023-10-10_14h24.49.215,Fish_Game,2023.1.3,Win32,60.25911419,,,,,,,,,,,,,10,,,,,,,,,,,,,,up,0.1677,,0,1,546.5411,0,9,9,9,1,stimuli/bead_g.PNG,stimuli/bead_y.PNG,stimuli/bead_y.PNG,stimuli/bead_b.PNG,stimuli/bead_y.PNG,2,3,right
,,,matt_test,2023-10-10_14h24.49.215,Fish_Game,2023.1.3,Win32,60.25911419,,,,,,,,,,,,,11,,,,,,,,,,,,,,right,0.5568,,1,1.5,549.1196,0,10,10,10,1,stimuli/bead_g.PNG,stimuli/bead_g.PNG,stimuli/bead_y.PNG,stimuli/bead_y.PNG,stimuli/bead_b.PNG,2,3,right
,,,matt_test,2023-10-10_14h24.49.215,Fish_Game,2023.1.3,Win32,60.25911419,,,,,,,,,,,,,12,,,,,,,,,,,,,,right,0.0063,,1,0.5,550.1523,0,11,11,11,1,stimuli/bead_y.PNG,stimuli/bead_g.PNG,stimuli/bead_g.PNG,stimuli/bead_y.PNG,stimuli/bead_y.PNG,2,3,right
,,,matt_test,2023-10-10_14h24.49.215,Fish_Game,2023.1.3,Win32,60.25911419,,,,,,,,,,,,,13,,,,,,,,,,,,,,right,0.1011,,1,1,551.7793,0,12,12,12,1,stimuli/bead_g.PNG,stimuli/bead_y.PNG,stimuli/bead_g.PNG,stimuli/bead_g.PNG,stimuli/bead_y.PNG,2,3,right
,,,matt_test,2023-10-10_14h24.49.215,Fish_Game,2023.1.3,Win32,60.25911419,,,,,,,,,,,,,14,,,,,,,,,,,,,,right,0.0005,,1,0.5,552.8042,0,13,13,13,1,stimuli/bead_g.PNG,stimuli/bead_g.PNG,stimuli/bead_y.PNG,stimuli/bead_g.PNG,stimuli/bead_g.PNG,2,3,right
,,,matt_test,2023-10-10_14h24.49.215,Fish_Game,2023.1.3,Win32,60.25911419,,,,,,,,,,,,,15,,,,,,,,,,,,,,right,0.1776,,1,1,554.4981,0,14,14,14,1,stimuli/bead_g.PNG,stimuli/bead_g.PNG,stimuli/bead_g.PNG,stimuli/bead_y.PNG,stimuli/bead_g.PNG,2,3,right
,,,matt_test,2023-10-10_14h24.49.215,Fish_Game,2023.1.3,Win32,60.25911419,,,,,,,,,,,,,1,,,,,,,,,,,,9,1condition/mainTrials9.xlsx,right,0.5176,,1,1.5,562.0291,0,0,0,0,1,stimuli/bead_g.PNG,stimuli/blank.jpg,stimuli/blank.jpg,stimuli/blank.jpg,stimuli/blank.jpg,2,3,right
,,,matt_test,2023-10-10_14h24.49.215,Fish_Game,2023.1.3,Win32,60.25911419,,,,,,,,,,,,,2,,,,,,,,,,,,,,right,0.3008,,1,0.5,563.372,0,1,1,1,1,stimuli/bead_g.PNG,stimuli/bead_g.PNG,stimuli/blank.jpg,stimuli/blank.jpg,stimuli/blank.jpg,2,3,right
,,,matt_test,2023-10-10_14h24.49.215,Fish_Game,2023.1.3,Win32,60.25911419,,,,,,,,,,,,,3,,,,,,,,,,,,,,right,0.0508,,1,1,564.9653,0,2,2,2,1,stimuli/bead_b.PNG,stimuli/bead_g.PNG,stimuli/bead_g.PNG,stimuli/blank.jpg,stimuli/blank.jpg,2,3,right
,,,matt_test,2023-10-10_14h24.49.215,Fish_Game,2023.1.3,Win32,60.25911419,,,,,,,,,,,,,4,,,,,,,,,,,,,,right,0.1501,,1,0.5,566.1334,0,3,3,3,1,stimuli/bead_g.PNG,stimuli/bead_b.PNG,stimuli/bead_g.PNG,stimuli/bead_g.PNG,stimuli/blank.jpg,2,3,right
,,,matt_test,2023-10-10_14h24.49.215,Fish_Game,2023.1.3,Win32,60.25911419,,,,,,,,,,,,,5,,,,,,,,,,,,,,right,0.1176,,1,0.5,567.2829,0,4,4,4,1,stimuli/bead_g.PNG,stimuli/bead_g.PNG,stimuli/bead_b.PNG,stimuli/bead_g.PNG,stimuli/bead_g.PNG,2,3,right
,,,matt_test,2023-10-10_14h24.49.215,Fish_Game,2023.1.3,Win32,60.25911419,,,,,,,,,,,,,6,,,,,,,,,,,,,,right,0.1332,,1,1.5,569.4436,0,5,5,5,1,stimuli/bead_b.PNG,stimuli/bead_g.PNG,stimuli/bead_g.PNG,stimuli/bead_b.PNG,stimuli/bead_g.PNG,2,3,right
,,,matt_test,2023-10-10_14h24.49.215,Fish_Game,2023.1.3,Win32,60.25911419,,,,,,,,,,,,,7,,,,,,,,,,,,,,right,0.2006,,1,0.5,570.6783,0,6,6,6,1,stimuli/bead_g.PNG,stimuli/bead_b.PNG,stimuli/bead_g.PNG,stimuli/bead_g.PNG,stimuli/bead_b.PNG,2,3,right
,,,matt_test,2023-10-10_14h24.49.215,Fish_Game,2023.1.3,Win32,60.25911419,,,,,,,,,,,,,8,,,,,,,,,,,,,,right,0.1111,,1,1,572.3042,0,7,7,7,1,stimuli/bead_g.PNG,stimuli/bead_g.PNG,stimuli/bead_b.PNG,stimuli/bead_g.PNG,stimuli/bead_g.PNG,2,3,right
,,,matt_test,2023-10-10_14h24.49.215,Fish_Game,2023.1.3,Win32,60.25911419,,,,,,,,,,,,,9,,,,,,,,,,,,,,right,0.0006,,0,0.5,573.3471,0,8,8,8,1,stimuli/bead_b.PNG,stimuli/bead_g.PNG,stimuli/bead_g.PNG,stimuli/bead_b.PNG,stimuli/bead_g.PNG,0,1,left
,,,matt_test,2023-10-10_14h24.49.215,Fish_Game,2023.1.3,Win32,60.25911419,,,,,,,,,,,,,10,,,,,,,,,,,,,,right,0.183,,0,1.5,575.5481,0,9,9,9,1,stimuli/bead_y.PNG,stimuli/bead_b.PNG,stimuli/bead_g.PNG,stimuli/bead_g.PNG,stimuli/bead_b.PNG,0,1,left
,,,matt_test,2023-10-10_14h24.49.215,Fish_Game,2023.1.3,Win32,60.25911419,,,,,,,,,,,,,11,,,,,,,,,,,,,,up,0.4689,,0,0.5,577.0408,0,10,10,10,1,stimuli/bead_b.PNG,stimuli/bead_y.PNG,stimuli/bead_b.PNG,stimuli/bead_g.PNG,stimuli/bead_g.PNG,0,1,left
,,,matt_test,2023-10-10_14h24.49.215,Fish_Game,2023.1.3,Win32,60.25911419,,,,,,,,,,,,,12,,,,,,,,,,,,,,left,0.1749,,1,1.5,579.226,0,11,11,11,1,stimuli/bead_b.PNG,stimuli/bead_b.PNG,stimuli/bead_y.PNG,stimuli/bead_b.PNG,stimuli/bead_g.PNG,0,1,left
,,,matt_test,2023-10-10_14h24.49.215,Fish_Game,2023.1.3,Win32,60.25911419,,,,,,,,,,,,,13,,,,,,,,,,,,,,left,0.0046,,1,1.5,581.2456,0,12,12,12,1,stimuli/bead_b.PNG,stimuli/bead_b.PNG,stimuli/bead_b.PNG,stimuli/bead_y.PNG,stimuli/bead_b.PNG,0,1,left
,,,matt_test,2023-10-10_14h24.49.215,Fish_Game,2023.1.3,Win32,60.25911419,,,,,,,,,,,,,14,,,,,,,,,,,,,,left,0.1016,,1,1,582.8717,0,13,13,13,1,stimuli/bead_g.PNG,stimuli/bead_b.PNG,stimuli/bead_b.PNG,stimuli/bead_b.PNG,stimuli/bead_y.PNG,0,1,left
,,,matt_test,2023-10-10_14h24.49.215,Fish_Game,2023.1.3,Win32,60.25911419,,,,,,,,,,,,,15,,,,,,,,,,,,,,left,0.169,,1,0.5,584.0807,0,14,14,14,1,stimuli/bead_b.PNG,stimuli/bead_g.PNG,stimuli/bead_b.PNG,stimuli/bead_b.PNG,stimuli/bead_b.PNG,0,1,left
,,,matt_test,2023-10-10_14h24.49.215,Fish_Game,2023.1.3,Win32,60.25911419,,,,,,,,,,,,,1,,,,,,,,,,,,10,1condition/mainTrials6.xlsx,left,0.5556,,0,1,591.1693,0,0,0,0,1,stimuli/bead_b.PNG,stimuli/blank.jpg,stimuli/blank.jpg,stimuli/blank.jpg,stimuli/blank.jpg,1,2,up
,,,matt_test,2023-10-10_14h24.49.215,Fish_Game,2023.1.3,Win32,60.25911419,,,,,,,,,,,,,2,,,,,,,,,,,,,,up,0.6176,,1,1,593.3388,0,1,1,1,1,stimuli/bead_y.PNG,stimuli/bead_b.PNG,stimuli/blank.jpg,stimuli/blank.jpg,stimuli/blank.jpg,1,2,up
,,,matt_test,2023-10-10_14h24.49.215,Fish_Game,2023.1.3,Win32,60.25911419,,,,,,,,,,,,,3,,,,,,,,,,,,,,up,0.5897,,1,0.5,594.9557,0,2,2,2,1,stimuli/bead_y.PNG,stimuli/bead_y.PNG,stimuli/bead_b.PNG,stimuli/blank.jpg,stimuli/blank.jpg,1,2,up
,,,matt_test,2023-10-10_14h24.49.215,Fish_Game,2023.1.3,Win32,60.25911419,,,,,,,,,,,,,4,,,,,,,,,,,,,,up,0.0006,,1,1.5,596.983,0,3,3,3,1,stimuli/bead_y.PNG,stimuli/bead_y.PNG,stimuli/bead_y.PNG,stimuli/bead_b.PNG,stimuli/blank.jpg,1,2,up
,,,matt_test,2023-10-10_14h24.49.215,Fish_Game,2023.1.3,Win32,60.25911419,,,,,,,,,,,,,5,,,,,,,,,,,,,,up,0.0172,,0,0.5,598.0249,0,4,4,4,1,stimuli/bead_g.PNG,stimuli/bead_y.PNG,stimuli/bead_y.PNG,stimuli/bead_y.PNG,stimuli/bead_b.PNG,2,3,right
,,,matt_test,2023-10-10_14h24.49.215,Fish_Game,2023.1.3,Win32,60.25911419,,,,,,,,,,,,,6,,,,,,,,,,,,,,up,0.3905,,0,0.5,599.4442,0,5,5,5,1,stimuli/bead_g.PNG,stimuli/bead_g.PNG,stimuli/bead_y.PNG,stimuli/bead_y.PNG,stimuli/bead_y.PNG,2,3,right
,,,matt_test,2023-10-10_14h24.49.215,Fish_Game,2023.1.3,Win32,60.25911419,,,,,,,,,,,,,7,,,,,,,,,,,,,,up,0.2696,,0,0.5,600.7455,0,6,6,6,1,stimuli/bead_y.PNG,stimuli/bead_g.PNG,stimuli/bead_g.PNG,stimuli/bead_y.PNG,stimuli/bead_y.PNG,2,3,right
,,,matt_test,2023-10-10_14h24.49.215,Fish_Game,2023.1.3,Win32,60.25911419,,,,,,,,,,,,,8,,,,,,,,,,,,,,up,0.0007,,0,0.5,601.7542,0,7,7,7,1,stimuli/bead_g.PNG,stimuli/bead_y.PNG,stimuli/bead_g.PNG,stimuli/bead_g.PNG,stimuli/bead_y.PNG,2,3,right
,,,matt_test,2023-10-10_14h24.49.215,Fish_Game,2023.1.3,Win32,60.25911419,,,,,,,,,,,,,9,,,,,,,,,,,,,,up,0.2169,,0,1,603.4975,0,8,8,8,1,stimuli/bead_g.PNG,stimuli/bead_g.PNG,stimuli/bead_y.PNG,stimuli/bead_g.PNG,stimuli/bead_g.PNG,2,3,right
,,,matt_test,2023-10-10_14h24.49.215,Fish_Game,2023.1.3,Win32,60.25911419,,,,,,,,,,,,,10,,,,,,,,,,,,,,right,0.4507,,1,1.5,605.9746,0,9,9,9,1,stimuli/bead_g.PNG,stimuli/bead_g.PNG,stimuli/bead_g.PNG,stimuli/bead_y.PNG,stimuli/bead_g.PNG,2,3,right
,,,matt_test,2023-10-10_14h24.49.215,Fish_Game,2023.1.3,Win32,60.25911419,,,,,,,,,,,,,11,,,,,,,,,,,,,,right,0.1169,,0,0.5,607.1251,0,10,10,10,1,stimuli/bead_y.PNG,stimuli/bead_g.PNG,stimuli/bead_g.PNG,stimuli/bead_g.PNG,stimuli/bead_y.PNG,1,2,up
,,,matt_test,2023-10-10_14h24.49.215,Fish_Game,2023.1.3,Win32,60.25911419,,,,,,,,,,,,,12,,,,,,,,,,,,,,right,0.0292,,0,1.5,609.1721,0,11,11,11,1,stimuli/bead_b.PNG,stimuli/bead_y.PNG,stimuli/bead_g.PNG,stimuli/bead_g.PNG,stimuli/bead_g.PNG,1,2,up
,,,matt_test,2023-10-10_14h24.49.215,Fish_Game,2023.1.3,Win32,60.25911419,,,,,,,,,,,,,13,,,,,,,,,,,,,,right,0.2184,,0,1.5,611.4215,0,12,12,12,1,stimuli/bead_y.PNG,stimuli/bead_b.PNG,stimuli/bead_y.PNG,stimuli/bead_g.PNG,stimuli/bead_g.PNG,1,2,up
,,,matt_test,2023-10-10_14h24.49.215,Fish_Game,2023.1.3,Win32,60.25911419,,,,,,,,,,,,,14,,,,,,,,,,,,,,right,0.0832,,0,0.5,612.5223,0,13,13,13,1,stimuli/bead_y.PNG,stimuli/bead_y.PNG,stimuli/bead_b.PNG,stimuli/bead_y.PNG,stimuli/bead_g.PNG,1,2,up
,,,matt_test,2023-10-10_14h24.49.215,Fish_Game,2023.1.3,Win32,60.25911419,,,,,,,,,,,,,15,,,,,,,,,,,,,,up,0.2204,,1,1,614.2723,0,14,14,14,1,stimuli/bead_y.PNG,stimuli/bead_y.PNG,stimuli/bead_y.PNG,stimuli/bead_b.PNG,stimuli/bead_y.PNG,1,2,up
