welcome_key_keys,welcome_key_rt,welcome_key_duration,prolific_id,path_id,date,expName,psychopyVersion,OS,frameRate,ins1_key_keys,ins1_key_rt,ins1_key_duration,practice_trial_started,practice_trial_num,prac_key_resp_keys,prac_key_resp_rt,prac_key_resp_duration,prac_resp_corr,prac_trials.thisRepN,prac_trials.thisTrialN,prac_trials.thisN,prac_trials.thisIndex,prac_trials.ran,trial,fish1_p,fish2_p,fish3_p,fish4_p,fish5_p,pond_p,pond_p2,pond_p3,ExpStart_key_keys,ExpStart_key_rt,ExpStart_key_duration,block number,block assignment,main_trial_started,main_trial_num,main_trial_keys,fish_interval,key_resp_time,trials.thisRepN,trials.thisTrialN,trials.thisN,trials.thisIndex,trials.ran,fish1,fish2,fish3,fish4,fish5,pond,pond2,pond3,main_trial_rt,main_trial_duration,main_resp_corr
space,1.5526,,test,A,2024-05-06_14h57.08.330,Fish Game,2023.1.3,MacIntel,59.88023952,,,,,,,,,,,,,,,,,,,,,,,,,,,,,,,,,,,,,,,,,,,,,,,,,
,,,test,A,2024-05-06_14h57.08.330,Fish Game,2023.1.3,MacIntel,59.88023952,space,4.2692,,,,,,,,,,,,,,,,,,,,,,,,,,,,,,,,,,,,,,,,,,,,,,,
,,,test,A,2024-05-06_14h57.08.330,Fish Game,2023.1.3,MacIntel,59.88023952,,,,,,,,,,,,,,,,,,,,,,,,,,,,,,,,,,,,,,,,,,,,,,,,,
,,,test,A,2024-05-06_14h57.08.330,Fish Game,2023.1.3,MacIntel,59.88023952,,,,,,,,,,,,,,,,,,,,,,,,,,,,,,,,,,,,,,,,,,,,,,,,,
,,,test,A,2024-05-06_14h57.08.330,Fish Game,2023.1.3,MacIntel,59.88023952,,,,,,,,,,,,,,,,,,,,,,,,,,,,,,,,,,,,,,,,,,,,,,,,,
,,,test,A,2024-05-06_14h57.08.330,Fish Game,2023.1.3,MacIntel,59.88023952,,,,,,,,,,,,,,,,,,,,,,,,,,,,,,,,,,,,,,,,,,,,,,,,,
,,,test,A,2024-05-06_14h57.08.330,Fish Game,2023.1.3,MacIntel,59.88023952,,,,179.508,0,left,0.6001,,1,0,0,0,0,1,1,stimuli/bead_b.PNG,stimuli/blank.jpg,stimuli/blank.jpg,stimuli/blank.jpg,stimuli/blank.jpg,0,1,left,,,,,,,,,,,,,,,,,,,,,,,,,,
,,,test,A,2024-05-06_14h57.08.330,Fish Game,2023.1.3,MacIntel,59.88023952,,,,181.9358,1,left,0.7857,,1,0,1,1,1,1,2,stimuli/bead_b.PNG,stimuli/bead_b.PNG,stimuli/blank.jpg,stimuli/blank.jpg,stimuli/blank.jpg,0,1,left,,,,,,,,,,,,,,,,,,,,,,,,,,
,,,test,A,2024-05-06_14h57.08.330,Fish Game,2023.1.3,MacIntel,59.88023952,,,,184.5384,2,up,0.5439,,0,0,2,2,2,1,3,stimuli/bead_g.PNG,stimuli/bead_b.PNG,stimuli/bead_b.PNG,stimuli/blank.jpg,stimuli/blank.jpg,0,1,left,,,,,,,,,,,,,,,,,,,,,,,,,,
,,,test,A,2024-05-06_14h57.08.330,Fish Game,2023.1.3,MacIntel,59.88023952,,,,186.3688,3,up,0.526,,0,0,3,3,3,1,4,stimuli/bead_b.PNG,stimuli/bead_g.PNG,stimuli/bead_b.PNG,stimuli/bead_b.PNG,stimuli/blank.jpg,0,1,left,,,,,,,,,,,,,,,,,,,,,,,,,,
,,,test,A,2024-05-06_14h57.08.330,Fish Game,2023.1.3,MacIntel,59.88023952,,,,188.2063,4,up,0.5893,,0,0,4,4,4,1,5,stimuli/bead_b.PNG,stimuli/bead_b.PNG,stimuli/bead_g.PNG,stimuli/bead_b.PNG,stimuli/bead_b.PNG,0,1,left,,,,,,,,,,,,,,,,,,,,,,,,,,
,,,test,A,2024-05-06_14h57.08.330,Fish Game,2023.1.3,MacIntel,59.88023952,,,,190.5743,5,up,1.027,,0,0,5,5,5,1,6,stimuli/bead_y.PNG,stimuli/bead_b.PNG,stimuli/bead_b.PNG,stimuli/bead_g.PNG,stimuli/bead_b.PNG,0,1,left,,,,,,,,,,,,,,,,,,,,,,,,,,
,,,test,A,2024-05-06_14h57.08.330,Fish Game,2023.1.3,MacIntel,59.88023952,,,,192.9085,6,up,0.553,,0,0,6,6,6,1,7,stimuli/bead_b.PNG,stimuli/bead_y.PNG,stimuli/bead_b.PNG,stimuli/bead_b.PNG,stimuli/bead_g.PNG,0,1,left,,,,,,,,,,,,,,,,,,,,,,,,,,
,,,test,A,2024-05-06_14h57.08.330,Fish Game,2023.1.3,MacIntel,59.88023952,,,,195.2769,7,up,0.5248,,1,0,7,7,7,1,8,stimuli/bead_y.PNG,stimuli/bead_b.PNG,stimuli/bead_y.PNG,stimuli/bead_b.PNG,stimuli/bead_b.PNG,1,2,up,,,,,,,,,,,,,,,,,,,,,,,,,,
,,,test,A,2024-05-06_14h57.08.330,Fish Game,2023.1.3,MacIntel,59.88023952,,,,197.1115,8,up,0.5859,,1,0,8,8,8,1,9,stimuli/bead_y.PNG,stimuli/bead_y.PNG,stimuli/bead_b.PNG,stimuli/bead_y.PNG,stimuli/bead_b.PNG,1,2,up,,,,,,,,,,,,,,,,,,,,,,,,,,
,,,test,A,2024-05-06_14h57.08.330,Fish Game,2023.1.3,MacIntel,59.88023952,,,,200.0125,9,up,0.6485,,1,0,9,9,9,1,10,stimuli/bead_b.PNG,stimuli/bead_y.PNG,stimuli/bead_y.PNG,stimuli/bead_b.PNG,stimuli/bead_y.PNG,1,2,up,,,,,,,,,,,,,,,,,,,,,,,,,,
,,,test,A,2024-05-06_14h57.08.330,Fish Game,2023.1.3,MacIntel,59.88023952,,,,202.9811,10,up,0.5062,,1,0,10,10,10,1,11,stimuli/bead_y.PNG,stimuli/bead_b.PNG,stimuli/bead_y.PNG,stimuli/bead_y.PNG,stimuli/bead_b.PNG,1,2,up,,,,,,,,,,,,,,,,,,,,,,,,,,
,,,test,A,2024-05-06_14h57.08.330,Fish Game,2023.1.3,MacIntel,59.88023952,,,,205.3003,11,up,0.5849,,1,0,11,11,11,1,12,stimuli/bead_y.PNG,stimuli/bead_y.PNG,stimuli/bead_b.PNG,stimuli/bead_y.PNG,stimuli/bead_y.PNG,1,2,up,,,,,,,,,,,,,,,,,,,,,,,,,,
,,,test,A,2024-05-06_14h57.08.330,Fish Game,2023.1.3,MacIntel,59.88023952,,,,207.7005,12,up,1.7764,,1,0,12,12,12,1,13,stimuli/bead_b.PNG,stimuli/bead_y.PNG,stimuli/bead_y.PNG,stimuli/bead_b.PNG,stimuli/bead_y.PNG,1,2,up,,,,,,,,,,,,,,,,,,,,,,,,,,
,,,test,A,2024-05-06_14h57.08.330,Fish Game,2023.1.3,MacIntel,59.88023952,,,,211.286,13,up,1.7646,,1,0,13,13,13,1,14,stimuli/bead_y.PNG,stimuli/bead_b.PNG,stimuli/bead_y.PNG,stimuli/bead_y.PNG,stimuli/bead_b.PNG,1,2,up,,,,,,,,,,,,,,,,,,,,,,,,,,
,,,test,A,2024-05-06_14h57.08.330,Fish Game,2023.1.3,MacIntel,59.88023952,,,,214.3701,14,up,2.4767,,1,0,14,14,14,1,15,stimuli/bead_y.PNG,stimuli/bead_y.PNG,stimuli/bead_b.PNG,stimuli/bead_y.PNG,stimuli/bead_y.PNG,1,2,up,,,,,,,,,,,,,,,,,,,,,,,,,,
,,,test,A,2024-05-06_14h57.08.330,Fish Game,2023.1.3,MacIntel,59.88023952,,,,223.6663,0,right,1.6185,,1,0,0,0,0,1,1,stimuli/bead_g.PNG,stimuli/blank.jpg,stimuli/blank.jpg,stimuli/blank.jpg,stimuli/blank.jpg,2,3,right,,,,,,,,,,,,,,,,,,,,,,,,,,
,,,test,A,2024-05-06_14h57.08.330,Fish Game,2023.1.3,MacIntel,59.88023952,,,,227.5943,1,right,0.7328,,1,0,1,1,1,1,2,stimuli/bead_g.PNG,stimuli/bead_g.PNG,stimuli/blank.jpg,stimuli/blank.jpg,stimuli/blank.jpg,2,3,right,,,,,,,,,,,,,,,,,,,,,,,,,,
,,,test,A,2024-05-06_14h57.08.330,Fish Game,2023.1.3,MacIntel,59.88023952,,,,230.1465,2,right,3.3492,,1,0,2,2,2,1,3,stimuli/bead_b.PNG,stimuli/bead_g.PNG,stimuli/bead_g.PNG,stimuli/blank.jpg,stimuli/blank.jpg,2,3,right,,,,,,,,,,,,,,,,,,,,,,,,,,
,,,test,A,2024-05-06_14h57.08.330,Fish Game,2023.1.3,MacIntel,59.88023952,,,,234.8165,3,up,0.7185,,0,0,3,3,3,1,4,stimuli/bead_g.PNG,stimuli/bead_b.PNG,stimuli/bead_g.PNG,stimuli/bead_g.PNG,stimuli/blank.jpg,2,3,right,,,,,,,,,,,,,,,,,,,,,,,,,,
,,,test,A,2024-05-06_14h57.08.330,Fish Game,2023.1.3,MacIntel,59.88023952,,,,236.8505,4,right,0.5283,,1,0,4,4,4,1,5,stimuli/bead_b.PNG,stimuli/bead_g.PNG,stimuli/bead_b.PNG,stimuli/bead_g.PNG,stimuli/bead_g.PNG,2,3,right,,,,,,,,,,,,,,,,,,,,,,,,,,
,,,test,A,2024-05-06_14h57.08.330,Fish Game,2023.1.3,MacIntel,59.88023952,,,,238.7025,5,right,0.6665,,1,0,5,5,5,1,6,stimuli/bead_g.PNG,stimuli/bead_b.PNG,stimuli/bead_g.PNG,stimuli/bead_b.PNG,stimuli/bead_g.PNG,2,3,right,,,,,,,,,,,,,,,,,,,,,,,,,,
,,,test,A,2024-05-06_14h57.08.330,Fish Game,2023.1.3,MacIntel,59.88023952,,,,241.1855,6,right,0.5629,,1,0,6,6,6,1,7,stimuli/bead_g.PNG,stimuli/bead_g.PNG,stimuli/bead_b.PNG,stimuli/bead_g.PNG,stimuli/bead_b.PNG,2,3,right,,,,,,,,,,,,,,,,,,,,,,,,,,
,,,test,A,2024-05-06_14h57.08.330,Fish Game,2023.1.3,MacIntel,59.88023952,,,,244.0544,7,right,0.5733,,1,0,7,7,7,1,8,stimuli/bead_g.PNG,stimuli/bead_g.PNG,stimuli/bead_g.PNG,stimuli/bead_b.PNG,stimuli/bead_g.PNG,2,3,right,,,,,,,,,,,,,,,,,,,,,,,,,,
,,,test,A,2024-05-06_14h57.08.330,Fish Game,2023.1.3,MacIntel,59.88023952,,,,245.9548,8,,,,,0,8,8,8,1,9,stimuli/bead_y.PNG,stimuli/bead_g.PNG,stimuli/bead_g.PNG,stimuli/bead_g.PNG,stimuli/bead_b.PNG,1,2,up,,,,,,,,,,,,,,,,,,,,,,,,,,
,,,test,A,2024-05-06_14h57.08.330,Fish Game,2023.1.3,MacIntel,59.88023952,,,,251.4625,9,,,,,0,9,9,9,1,10,stimuli/bead_y.PNG,stimuli/bead_y.PNG,stimuli/bead_g.PNG,stimuli/bead_g.PNG,stimuli/bead_g.PNG,1,2,up,,,,,,,,,,,,,,,,,,,,,,,,,,
,,,test,A,2024-05-06_14h57.08.330,Fish Game,2023.1.3,MacIntel,59.88023952,,,,256.9781,10,,,,,0,10,10,10,1,11,stimuli/bead_y.PNG,stimuli/bead_y.PNG,stimuli/bead_y.PNG,stimuli/bead_g.PNG,stimuli/bead_g.PNG,1,2,up,,,,,,,,,,,,,,,,,,,,,,,,,,
,,,test,A,2024-05-06_14h57.08.330,Fish Game,2023.1.3,MacIntel,59.88023952,,,,262.4836,11,,,,,0,11,11,11,1,12,stimuli/bead_g.PNG,stimuli/bead_y.PNG,stimuli/bead_y.PNG,stimuli/bead_y.PNG,stimuli/bead_g.PNG,1,2,up,,,,,,,,,,,,,,,,,,,,,,,,,,
,,,test,A,2024-05-06_14h57.08.330,Fish Game,2023.1.3,MacIntel,59.88023952,,,,268.0019,12,,,,,0,12,12,12,1,13,stimuli/bead_y.PNG,stimuli/bead_g.PNG,stimuli/bead_y.PNG,stimuli/bead_y.PNG,stimuli/bead_y.PNG,1,2,up,,,,,,,,,,,,,,,,,,,,,,,,,,
,,,test,A,2024-05-06_14h57.08.330,Fish Game,2023.1.3,MacIntel,59.88023952,,,,273.504,13,,,,,0,13,13,13,1,14,stimuli/bead_y.PNG,stimuli/bead_y.PNG,stimuli/bead_g.PNG,stimuli/bead_y.PNG,stimuli/bead_y.PNG,1,2,up,,,,,,,,,,,,,,,,,,,,,,,,,,
,,,test,A,2024-05-06_14h57.08.330,Fish Game,2023.1.3,MacIntel,59.88023952,,,,279.0077,14,,,,,0,14,14,14,1,15,stimuli/bead_b.PNG,stimuli/bead_y.PNG,stimuli/bead_y.PNG,stimuli/bead_g.PNG,stimuli/bead_y.PNG,1,2,up,,,,,,,,,,,,,,,,,,,,,,,,,,
,,,test,A,2024-05-06_14h57.08.330,Fish Game,2023.1.3,MacIntel,59.88023952,,,,,,,,,,,,,,,1,,,,,,,,,space,23.6955,,1,1condition/mainTrials10.xlsx,313.2382,0,,1.5,,0,0,0,0,1,stimuli/bead_y.PNG,stimuli/blank.jpg,stimuli/blank.jpg,stimuli/blank.jpg,stimuli/blank.jpg,0,1,left,,,
,,,test,A,2024-05-06_14h57.08.330,Fish Game,2023.1.3,MacIntel,59.88023952,,,,,,,,,,,,,,,2,,,,,,,,,,,,,,318.4505,1,,1.5,,0,1,1,1,1,stimuli/bead_b.PNG,stimuli/bead_y.PNG,stimuli/blank.jpg,stimuli/blank.jpg,stimuli/blank.jpg,0,1,left,,,
,,,test,A,2024-05-06_14h57.08.330,Fish Game,2023.1.3,MacIntel,59.88023952,,,,,,,,,,,,,,,3,,,,,,,,,,,,,,323.6669,2,,1.5,,0,2,2,2,1,stimuli/bead_b.PNG,stimuli/bead_b.PNG,stimuli/bead_y.PNG,stimuli/blank.jpg,stimuli/blank.jpg,0,1,left,,,
,,,test,A,2024-05-06_14h57.08.330,Fish Game,2023.1.3,MacIntel,59.88023952,,,,,,,,,,,,,,,4,,,,,,,,,,,,,,328.8695,3,left,0.5,329.9028,0,3,3,3,1,stimuli/bead_b.PNG,stimuli/bead_b.PNG,stimuli/bead_b.PNG,stimuli/bead_y.PNG,stimuli/blank.jpg,0,1,left,0.5094,,1
,,,test,A,2024-05-06_14h57.08.330,Fish Game,2023.1.3,MacIntel,59.88023952,,,,,,,,,,,,,,,5,,,,,,,,,,,,,,330.4019,4,left,0.5,332.1373,0,4,4,4,1,stimuli/bead_b.PNG,stimuli/bead_b.PNG,stimuli/bead_b.PNG,stimuli/bead_b.PNG,stimuli/bead_y.PNG,0,1,left,1.2169,,1
,,,test,A,2024-05-06_14h57.08.330,Fish Game,2023.1.3,MacIntel,59.88023952,,,,,,,,,,,,,,,6,,,,,,,,,,,,,,332.6375,5,left,1,334.2885,0,5,5,5,1,stimuli/bead_g.PNG,stimuli/bead_b.PNG,stimuli/bead_b.PNG,stimuli/bead_b.PNG,stimuli/bead_b.PNG,0,1,left,0.6435,,1
,,,test,A,2024-05-06_14h57.08.330,Fish Game,2023.1.3,MacIntel,59.88023952,,,,,,,,,,,,,,,7,,,,,,,,,,,,,,334.7896,6,,0.5,334.2885,0,6,6,6,1,stimuli/bead_b.PNG,stimuli/bead_g.PNG,stimuli/bead_b.PNG,stimuli/bead_b.PNG,stimuli/bead_b.PNG,0,1,left,,,
,,,test,A,2024-05-06_14h57.08.330,Fish Game,2023.1.3,MacIntel,59.88023952,,,,,,,,,,,,,,,8,,,,,,,,,,,,,,339.9929,7,,0.5,334.2885,0,7,7,7,1,stimuli/bead_b.PNG,stimuli/bead_b.PNG,stimuli/bead_g.PNG,stimuli/bead_b.PNG,stimuli/bead_b.PNG,0,1,left,,,
,,,test,A,2024-05-06_14h57.08.330,Fish Game,2023.1.3,MacIntel,59.88023952,,,,,,,,,,,,,,,9,,,,,,,,,,,,,,345.1956,8,,0.5,334.2885,0,8,8,8,1,stimuli/bead_y.PNG,stimuli/bead_b.PNG,stimuli/bead_b.PNG,stimuli/bead_g.PNG,stimuli/bead_b.PNG,0,1,left,,,
,,,test,A,2024-05-06_14h57.08.330,Fish Game,2023.1.3,MacIntel,59.88023952,,,,,,,,,,,,,,,10,,,,,,,,,,,,,,350.3986,9,,0.5,334.2885,0,9,9,9,1,stimuli/bead_b.PNG,stimuli/bead_y.PNG,stimuli/bead_b.PNG,stimuli/bead_b.PNG,stimuli/bead_g.PNG,0,1,left,,,
,,,test,A,2024-05-06_14h57.08.330,Fish Game,2023.1.3,MacIntel,59.88023952,,,,,,,,,,,,,,,11,,,,,,,,,,,,,,355.6003,10,,1.5,334.2885,0,10,10,10,1,stimuli/bead_g.PNG,stimuli/bead_b.PNG,stimuli/bead_y.PNG,stimuli/bead_b.PNG,stimuli/bead_b.PNG,2,3,right,,,
,,,test,A,2024-05-06_14h57.08.330,Fish Game,2023.1.3,MacIntel,59.88023952,,,,,,,,,,,,,,,12,,,,,,,,,,,,,,360.804,11,,1,334.2885,0,11,11,11,1,stimuli/bead_b.PNG,stimuli/bead_g.PNG,stimuli/bead_b.PNG,stimuli/bead_y.PNG,stimuli/bead_b.PNG,2,3,right,,,
,,,test,A,2024-05-06_14h57.08.330,Fish Game,2023.1.3,MacIntel,59.88023952,,,,,,,,,,,,,,,13,,,,,,,,,,,,,,366.0089,12,,1.5,334.2885,0,12,12,12,1,stimuli/bead_g.PNG,stimuli/bead_b.PNG,stimuli/bead_g.PNG,stimuli/bead_b.PNG,stimuli/bead_y.PNG,2,3,right,,,
,,,test,A,2024-05-06_14h57.08.330,Fish Game,2023.1.3,MacIntel,59.88023952,,,,,,,,,,,,,,,14,,,,,,,,,,,,,,371.2266,13,right,1,375.9781,0,13,13,13,1,stimuli/bead_g.PNG,stimuli/bead_g.PNG,stimuli/bead_b.PNG,stimuli/bead_g.PNG,stimuli/bead_b.PNG,2,3,right,3.7403,,1
,,,test,A,2024-05-06_14h57.08.330,Fish Game,2023.1.3,MacIntel,59.88023952,,,,,,,,,,,,,,,15,,,,,,,,,,,,,,376.4796,14,right,1,378.0294,0,14,14,14,1,stimuli/bead_g.PNG,stimuli/bead_g.PNG,stimuli/bead_g.PNG,stimuli/bead_b.PNG,stimuli/bead_g.PNG,2,3,right,0.5155,,1
,,,test,A,2024-05-06_14h57.08.330,Fish Game,2023.1.3,MacIntel,59.88023952,,,,,,,,,,,,,,,1,,,,,,,,,,,,2,1condition/mainTrials2.xlsx,383.5417,0,right,1,385.1338,0,0,0,0,1,stimuli/bead_y.PNG,stimuli/blank.jpg,stimuli/blank.jpg,stimuli/blank.jpg,stimuli/blank.jpg,1,2,up,0.5733,,0
,,,test,A,2024-05-06_14h57.08.330,Fish Game,2023.1.3,MacIntel,59.88023952,,,,,,,,,,,,,,,2,,,,,,,,,,,,,,385.6333,1,right,0.5,386.8015,0,1,1,1,1,stimuli/bead_b.PNG,stimuli/bead_y.PNG,stimuli/blank.jpg,stimuli/blank.jpg,stimuli/blank.jpg,1,2,up,0.6471,,0
,,,test,A,2024-05-06_14h57.08.330,Fish Game,2023.1.3,MacIntel,59.88023952,,,,,,,,,,,,,,,3,,,,,,,,,,,,,,387.3019,2,up,0.5,388.669,0,2,2,2,1,stimuli/bead_y.PNG,stimuli/bead_b.PNG,stimuli/bead_y.PNG,stimuli/blank.jpg,stimuli/blank.jpg,1,2,up,0.8601,,1
,,,test,A,2024-05-06_14h57.08.330,Fish Game,2023.1.3,MacIntel,59.88023952,,,,,,,,,,,,,,,4,,,,,,,,,,,,,,389.1693,3,up,0.5,390.3857,0,3,3,3,1,stimuli/bead_y.PNG,stimuli/bead_y.PNG,stimuli/bead_b.PNG,stimuli/bead_y.PNG,stimuli/blank.jpg,1,2,up,0.7027,,1
,,,test,A,2024-05-06_14h57.08.330,Fish Game,2023.1.3,MacIntel,59.88023952,,,,,,,,,,,,,,,5,,,,,,,,,,,,,,390.8862,4,up,1,392.5703,0,4,4,4,1,stimuli/bead_g.PNG,stimuli/bead_y.PNG,stimuli/bead_y.PNG,stimuli/bead_b.PNG,stimuli/bead_y.PNG,1,2,up,0.6693,,1
,,,test,A,2024-05-06_14h57.08.330,Fish Game,2023.1.3,MacIntel,59.88023952,,,,,,,,,,,,,,,6,,,,,,,,,,,,,,393.0715,5,up,1.5,395.1627,0,5,5,5,1,stimuli/bead_y.PNG,stimuli/bead_g.PNG,stimuli/bead_y.PNG,stimuli/bead_y.PNG,stimuli/bead_b.PNG,1,2,up,0.5868,,1
,,,test,A,2024-05-06_14h57.08.330,Fish Game,2023.1.3,MacIntel,59.88023952,,,,,,,,,,,,,,,7,,,,,,,,,,,,,,395.6562,6,up,1.5,398.4424,0,6,6,6,1,stimuli/bead_b.PNG,stimuli/bead_y.PNG,stimuli/bead_g.PNG,stimuli/bead_y.PNG,stimuli/bead_y.PNG,0,1,left,1.2732,,0
,,,test,A,2024-05-06_14h57.08.330,Fish Game,2023.1.3,MacIntel,59.88023952,,,,,,,,,,,,,,,8,,,,,,,,,,,,,,398.9416,7,up,0.5,400.059,0,7,7,7,1,stimuli/bead_b.PNG,stimuli/bead_b.PNG,stimuli/bead_y.PNG,stimuli/bead_g.PNG,stimuli/bead_y.PNG,0,1,left,0.5818,,0
,,,test,A,2024-05-06_14h57.08.330,Fish Game,2023.1.3,MacIntel,59.88023952,,,,,,,,,,,,,,,9,,,,,,,,,,,,,,400.5585,8,left,1,402.0757,0,8,8,8,1,stimuli/bead_y.PNG,stimuli/bead_b.PNG,stimuli/bead_b.PNG,stimuli/bead_y.PNG,stimuli/bead_g.PNG,0,1,left,0.5103,,1
,,,test,A,2024-05-06_14h57.08.330,Fish Game,2023.1.3,MacIntel,59.88023952,,,,,,,,,,,,,,,10,,,,,,,,,,,,,,402.5768,9,left,1,404.11,0,9,9,9,1,stimuli/bead_b.PNG,stimuli/bead_y.PNG,stimuli/bead_b.PNG,stimuli/bead_b.PNG,stimuli/bead_y.PNG,0,1,left,0.5111,,1
,,,test,A,2024-05-06_14h57.08.330,Fish Game,2023.1.3,MacIntel,59.88023952,,,,,,,,,,,,,,,11,,,,,,,,,,,,,,404.6113,10,left,1.5,406.6623,0,10,10,10,1,stimuli/bead_b.PNG,stimuli/bead_b.PNG,stimuli/bead_y.PNG,stimuli/bead_b.PNG,stimuli/bead_b.PNG,0,1,left,0.5438,,1
,,,test,A,2024-05-06_14h57.08.330,Fish Game,2023.1.3,MacIntel,59.88023952,,,,,,,,,,,,,,,12,,,,,,,,,,,,,,407.1628,11,left,1.5,409.2633,0,11,11,11,1,stimuli/bead_b.PNG,stimuli/bead_b.PNG,stimuli/bead_b.PNG,stimuli/bead_y.PNG,stimuli/bead_b.PNG,0,1,left,0.5827,,1
,,,test,A,2024-05-06_14h57.08.330,Fish Game,2023.1.3,MacIntel,59.88023952,,,,,,,,,,,,,,,13,,,,,,,,,,,,,,409.765,12,left,0.5,414.0333,0,12,12,12,1,stimuli/bead_g.PNG,stimuli/bead_b.PNG,stimuli/bead_b.PNG,stimuli/bead_b.PNG,stimuli/bead_y.PNG,0,1,left,3.7425,,1
,,,test,A,2024-05-06_14h57.08.330,Fish Game,2023.1.3,MacIntel,59.88023952,,,,,,,,,,,,,,,14,,,,,,,,,,,,,,414.5348,13,left,1.5,416.687,0,13,13,13,1,stimuli/bead_b.PNG,stimuli/bead_g.PNG,stimuli/bead_b.PNG,stimuli/bead_b.PNG,stimuli/bead_b.PNG,0,1,left,0.6333,,1
,,,test,A,2024-05-06_14h57.08.330,Fish Game,2023.1.3,MacIntel,59.88023952,,,,,,,,,,,,,,,15,,,,,,,,,,,,,,417.1852,14,left,0.5,418.2354,0,14,14,14,1,stimuli/bead_b.PNG,stimuli/bead_b.PNG,stimuli/bead_g.PNG,stimuli/bead_b.PNG,stimuli/bead_b.PNG,0,1,left,0.5452,,1
,,,test,A,2024-05-06_14h57.08.330,Fish Game,2023.1.3,MacIntel,59.88023952,,,,,,,,,,,,,,,1,,,,,,,,,,,,3,1condition/mainTrials8.xlsx,423.7503,0,left,1,425.2786,0,0,0,0,1,stimuli/bead_y.PNG,stimuli/blank.jpg,stimuli/blank.jpg,stimuli/blank.jpg,stimuli/blank.jpg,0,1,left,0.5085,,1
,,,test,A,2024-05-06_14h57.08.330,Fish Game,2023.1.3,MacIntel,59.88023952,,,,,,,,,,,,,,,2,,,,,,,,,,,,,,425.773,1,left,0.5,427.0755,0,1,1,1,1,stimuli/bead_b.PNG,stimuli/bead_y.PNG,stimuli/blank.jpg,stimuli/blank.jpg,stimuli/blank.jpg,0,1,left,0.7842,,1
,,,test,A,2024-05-06_14h57.08.330,Fish Game,2023.1.3,MacIntel,59.88023952,,,,,,,,,,,,,,,3,,,,,,,,,,,,,,427.5736,2,left,1,429.2247,0,2,2,2,1,stimuli/bead_g.PNG,stimuli/bead_b.PNG,stimuli/bead_y.PNG,stimuli/blank.jpg,stimuli/blank.jpg,0,1,left,0.6418,,1
,,,test,A,2024-05-06_14h57.08.330,Fish Game,2023.1.3,MacIntel,59.88023952,,,,,,,,,,,,,,,4,,,,,,,,,,,,,,429.7245,3,left,0.5,430.7424,0,3,3,3,1,stimuli/bead_b.PNG,stimuli/bead_g.PNG,stimuli/bead_b.PNG,stimuli/bead_y.PNG,stimuli/blank.jpg,0,1,left,0.5128,,1
,,,test,A,2024-05-06_14h57.08.330,Fish Game,2023.1.3,MacIntel,59.88023952,,,,,,,,,,,,,,,5,,,,,,,,,,,,,,431.2423,4,up,0.5,432.2608,0,4,4,4,1,stimuli/bead_b.PNG,stimuli/bead_b.PNG,stimuli/bead_g.PNG,stimuli/bead_b.PNG,stimuli/bead_y.PNG,0,1,left,0.5007,,0
,,,test,A,2024-05-06_14h57.08.330,Fish Game,2023.1.3,MacIntel,59.88023952,,,,,,,,,,,,,,,6,,,,,,,,,,,,,,432.7612,5,up,1,434.2946,0,5,5,5,1,stimuli/bead_b.PNG,stimuli/bead_b.PNG,stimuli/bead_b.PNG,stimuli/bead_g.PNG,stimuli/bead_b.PNG,0,1,left,0.5112,,0
,,,test,A,2024-05-06_14h57.08.330,Fish Game,2023.1.3,MacIntel,59.88023952,,,,,,,,,,,,,,,7,,,,,,,,,,,,,,434.7948,6,left,0.5,435.9461,0,6,6,6,1,stimuli/bead_g.PNG,stimuli/bead_b.PNG,stimuli/bead_b.PNG,stimuli/bead_b.PNG,stimuli/bead_g.PNG,0,1,left,0.6305,,1
,,,test,A,2024-05-06_14h57.08.330,Fish Game,2023.1.3,MacIntel,59.88023952,,,,,,,,,,,,,,,8,,,,,,,,,,,,,,436.4468,7,left,0.5,437.6124,0,7,7,7,1,stimuli/bead_b.PNG,stimuli/bead_g.PNG,stimuli/bead_b.PNG,stimuli/bead_b.PNG,stimuli/bead_b.PNG,0,1,left,0.6328,,1
,,,test,A,2024-05-06_14h57.08.330,Fish Game,2023.1.3,MacIntel,59.88023952,,,,,,,,,,,,,,,9,,,,,,,,,,,,,,438.1148,8,,0.5,437.6124,0,8,8,8,1,stimuli/bead_y.PNG,stimuli/bead_b.PNG,stimuli/bead_g.PNG,stimuli/bead_b.PNG,stimuli/bead_b.PNG,0,1,left,,,
,,,test,A,2024-05-06_14h57.08.330,Fish Game,2023.1.3,MacIntel,59.88023952,,,,,,,,,,,,,,,10,,,,,,,,,,,,,,443.3176,9,left,0.5,446.3006,0,9,9,9,1,stimuli/bead_b.PNG,stimuli/bead_y.PNG,stimuli/bead_b.PNG,stimuli/bead_g.PNG,stimuli/bead_b.PNG,0,1,left,2.4627,,1
,,,test,A,2024-05-06_14h57.08.330,Fish Game,2023.1.3,MacIntel,59.88023952,,,,,,,,,,,,,,,11,,,,,,,,,,,,,,446.802,10,left,0.5,447.9347,0,10,10,10,1,stimuli/bead_b.PNG,stimuli/bead_b.PNG,stimuli/bead_y.PNG,stimuli/bead_b.PNG,stimuli/bead_g.PNG,0,1,left,0.6194,,1
,,,test,A,2024-05-06_14h57.08.330,Fish Game,2023.1.3,MacIntel,59.88023952,,,,,,,,,,,,,,,12,,,,,,,,,,,,,,448.4361,11,left,0.5,449.5536,0,11,11,11,1,stimuli/bead_y.PNG,stimuli/bead_b.PNG,stimuli/bead_b.PNG,stimuli/bead_y.PNG,stimuli/bead_b.PNG,1,2,up,0.6005,,0
,,,test,A,2024-05-06_14h57.08.330,Fish Game,2023.1.3,MacIntel,59.88023952,,,,,,,,,,,,,,,13,,,,,,,,,,,,,,450.0533,12,left,0.5,451.3198,0,12,12,12,1,stimuli/bead_y.PNG,stimuli/bead_y.PNG,stimuli/bead_b.PNG,stimuli/bead_b.PNG,stimuli/bead_y.PNG,1,2,up,0.7394,,0
,,,test,A,2024-05-06_14h57.08.330,Fish Game,2023.1.3,MacIntel,59.88023952,,,,,,,,,,,,,,,14,,,,,,,,,,,,,,451.821,13,up,1,453.422,0,13,13,13,1,stimuli/bead_y.PNG,stimuli/bead_y.PNG,stimuli/bead_y.PNG,stimuli/bead_b.PNG,stimuli/bead_b.PNG,1,2,up,0.5944,,1
,,,test,A,2024-05-06_14h57.08.330,Fish Game,2023.1.3,MacIntel,59.88023952,,,,,,,,,,,,,,,15,,,,,,,,,,,,,,453.9215,14,up,0.5,454.9886,0,14,14,14,1,stimuli/bead_g.PNG,stimuli/bead_y.PNG,stimuli/bead_y.PNG,stimuli/bead_y.PNG,stimuli/bead_b.PNG,1,2,up,0.5594,,1
,,,test,A,2024-05-06_14h57.08.330,Fish Game,2023.1.3,MacIntel,59.88023952,,,,,,,,,,,,,,,1,,,,,,,,,,,,4,1condition/mainTrials3.xlsx,460.497,0,up,1,462.1556,0,0,0,0,1,stimuli/bead_y.PNG,stimuli/blank.jpg,stimuli/blank.jpg,stimuli/blank.jpg,stimuli/blank.jpg,1,2,up,0.6026,,1
,,,test,A,2024-05-06_14h57.08.330,Fish Game,2023.1.3,MacIntel,59.88023952,,,,,,,,,,,,,,,2,,,,,,,,,,,,,,462.6596,1,up,1.5,464.7617,0,1,1,1,1,stimuli/bead_y.PNG,stimuli/bead_y.PNG,stimuli/blank.jpg,stimuli/blank.jpg,stimuli/blank.jpg,1,2,up,0.5837,,1
,,,test,A,2024-05-06_14h57.08.330,Fish Game,2023.1.3,MacIntel,59.88023952,,,,,,,,,,,,,,,3,,,,,,,,,,,,,,465.2622,2,up,1.5,467.3143,0,2,2,2,1,stimuli/bead_b.PNG,stimuli/bead_y.PNG,stimuli/bead_y.PNG,stimuli/blank.jpg,stimuli/blank.jpg,1,2,up,0.5318,,1
,,,test,A,2024-05-06_14h57.08.330,Fish Game,2023.1.3,MacIntel,59.88023952,,,,,,,,,,,,,,,4,,,,,,,,,,,,,,467.8133,3,up,1,469.4644,0,3,3,3,1,stimuli/bead_y.PNG,stimuli/bead_b.PNG,stimuli/bead_y.PNG,stimuli/bead_y.PNG,stimuli/blank.jpg,1,2,up,0.637,,1
,,,test,A,2024-05-06_14h57.08.330,Fish Game,2023.1.3,MacIntel,59.88023952,,,,,,,,,,,,,,,5,,,,,,,,,,,,,,469.9652,4,up,1,471.8485,0,4,4,4,1,stimuli/bead_y.PNG,stimuli/bead_y.PNG,stimuli/bead_b.PNG,stimuli/bead_y.PNG,stimuli/bead_y.PNG,1,2,up,0.8757,,1
,,,test,A,2024-05-06_14h57.08.330,Fish Game,2023.1.3,MacIntel,59.88023952,,,,,,,,,,,,,,,6,,,,,,,,,,,,,,472.3492,5,up,1,473.9007,0,5,5,5,1,stimuli/bead_y.PNG,stimuli/bead_y.PNG,stimuli/bead_y.PNG,stimuli/bead_b.PNG,stimuli/bead_y.PNG,1,2,up,0.5387,,1
,,,test,A,2024-05-06_14h57.08.330,Fish Game,2023.1.3,MacIntel,59.88023952,,,,,,,,,,,,,,,7,,,,,,,,,,,,,,474.3911,6,up,1,476.0013,0,6,6,6,1,stimuli/bead_b.PNG,stimuli/bead_y.PNG,stimuli/bead_y.PNG,stimuli/bead_y.PNG,stimuli/bead_b.PNG,1,2,up,0.5972,,1
,,,test,A,2024-05-06_14h57.08.330,Fish Game,2023.1.3,MacIntel,59.88023952,,,,,,,,,,,,,,,8,,,,,,,,,,,,,,476.5019,7,up,0.5,477.5694,0,7,7,7,1,stimuli/bead_y.PNG,stimuli/bead_b.PNG,stimuli/bead_y.PNG,stimuli/bead_y.PNG,stimuli/bead_y.PNG,1,2,up,0.5597,,1
,,,test,A,2024-05-06_14h57.08.330,Fish Game,2023.1.3,MacIntel,59.88023952,,,,,,,,,,,,,,,9,,,,,,,,,,,,,,478.0691,8,up,0.5,479.1361,0,8,8,8,1,stimuli/bead_y.PNG,stimuli/bead_y.PNG,stimuli/bead_b.PNG,stimuli/bead_y.PNG,stimuli/bead_y.PNG,1,2,up,0.5585,,1
,,,test,A,2024-05-06_14h57.08.330,Fish Game,2023.1.3,MacIntel,59.88023952,,,,,,,,,,,,,,,10,,,,,,,,,,,,,,479.6361,9,up,1,481.1716,0,9,9,9,1,stimuli/bead_g.PNG,stimuli/bead_y.PNG,stimuli/bead_y.PNG,stimuli/bead_b.PNG,stimuli/bead_y.PNG,1,2,up,0.5286,,1
,,,test,A,2024-05-06_14h57.08.330,Fish Game,2023.1.3,MacIntel,59.88023952,,,,,,,,,,,,,,,11,,,,,,,,,,,,,,481.6718,10,up,1.5,483.7564,0,10,10,10,1,stimuli/bead_y.PNG,stimuli/bead_g.PNG,stimuli/bead_y.PNG,stimuli/bead_y.PNG,stimuli/bead_b.PNG,1,2,up,0.5687,,1
,,,test,A,2024-05-06_14h57.08.330,Fish Game,2023.1.3,MacIntel,59.88023952,,,,,,,,,,,,,,,12,,,,,,,,,,,,,,484.2555,11,up,0.5,485.5072,0,11,11,11,1,stimuli/bead_g.PNG,stimuli/bead_y.PNG,stimuli/bead_g.PNG,stimuli/bead_y.PNG,stimuli/bead_y.PNG,1,2,up,0.7443,,1
,,,test,A,2024-05-06_14h57.08.330,Fish Game,2023.1.3,MacIntel,59.88023952,,,,,,,,,,,,,,,13,,,,,,,,,,,,,,486.0068,12,up,0.5,487.0907,0,12,12,12,1,stimuli/bead_y.PNG,stimuli/bead_g.PNG,stimuli/bead_y.PNG,stimuli/bead_g.PNG,stimuli/bead_y.PNG,1,2,up,0.5777,,1
,,,test,A,2024-05-06_14h57.08.330,Fish Game,2023.1.3,MacIntel,59.88023952,,,,,,,,,,,,,,,14,,,,,,,,,,,,,,487.5905,13,up,1,489.1591,0,13,13,13,1,stimuli/bead_y.PNG,stimuli/bead_y.PNG,stimuli/bead_g.PNG,stimuli/bead_y.PNG,stimuli/bead_g.PNG,1,2,up,0.5534,,1
,,,test,A,2024-05-06_14h57.08.330,Fish Game,2023.1.3,MacIntel,59.88023952,,,,,,,,,,,,,,,15,,,,,,,,,,,,,,489.6585,14,up,1.5,491.7927,0,14,14,14,1,stimuli/bead_y.PNG,stimuli/bead_y.PNG,stimuli/bead_y.PNG,stimuli/bead_g.PNG,stimuli/bead_y.PNG,1,2,up,0.6273,,1
,,,test,A,2024-05-06_14h57.08.330,Fish Game,2023.1.3,MacIntel,59.88023952,,,,,,,,,,,,,,,1,,,,,,,,,,,,5,1condition/mainTrials1.xlsx,497.3063,0,right,0.5,498.4633,0,0,0,0,1,stimuli/bead_g.PNG,stimuli/blank.jpg,stimuli/blank.jpg,stimuli/blank.jpg,stimuli/blank.jpg,2,3,right,0.642,,1
,,,test,A,2024-05-06_14h57.08.330,Fish Game,2023.1.3,MacIntel,59.88023952,,,,,,,,,,,,,,,2,,,,,,,,,,,,,,498.9653,1,right,1.5,501.0499,0,1,1,1,1,stimuli/bead_y.PNG,stimuli/bead_g.PNG,stimuli/blank.jpg,stimuli/blank.jpg,stimuli/blank.jpg,2,3,right,0.5506,,1
,,,test,A,2024-05-06_14h57.08.330,Fish Game,2023.1.3,MacIntel,59.88023952,,,,,,,,,,,,,,,3,,,,,,,,,,,,,,501.5503,2,right,1,503.0825,0,2,2,2,1,stimuli/bead_g.PNG,stimuli/bead_y.PNG,stimuli/bead_g.PNG,stimuli/blank.jpg,stimuli/blank.jpg,2,3,right,0.5106,,1
,,,test,A,2024-05-06_14h57.08.330,Fish Game,2023.1.3,MacIntel,59.88023952,,,,,,,,,,,,,,,4,,,,,,,,,,,,,,503.5835,3,right,1.5,505.9847,0,3,3,3,1,stimuli/bead_b.PNG,stimuli/bead_g.PNG,stimuli/bead_y.PNG,stimuli/bead_g.PNG,stimuli/blank.jpg,2,3,right,0.8846,,1
,,,test,A,2024-05-06_14h57.08.330,Fish Game,2023.1.3,MacIntel,59.88023952,,,,,,,,,,,,,,,5,,,,,,,,,,,,,,506.4857,4,right,1.5,508.6367,0,4,4,4,1,stimuli/bead_g.PNG,stimuli/bead_b.PNG,stimuli/bead_g.PNG,stimuli/bead_y.PNG,stimuli/bead_g.PNG,2,3,right,0.6324,,1
,,,test,A,2024-05-06_14h57.08.330,Fish Game,2023.1.3,MacIntel,59.88023952,,,,,,,,,,,,,,,6,,,,,,,,,,,,,,509.1361,5,right,1,510.7708,0,5,5,5,1,stimuli/bead_g.PNG,stimuli/bead_g.PNG,stimuli/bead_b.PNG,stimuli/bead_g.PNG,stimuli/bead_y.PNG,2,3,right,0.6249,,1
,,,test,A,2024-05-06_14h57.08.330,Fish Game,2023.1.3,MacIntel,59.88023952,,,,,,,,,,,,,,,7,,,,,,,,,,,,,,511.2706,6,right,1,512.7886,0,6,6,6,1,stimuli/bead_g.PNG,stimuli/bead_g.PNG,stimuli/bead_g.PNG,stimuli/bead_b.PNG,stimuli/bead_g.PNG,2,3,right,0.5084,,1
,,,test,A,2024-05-06_14h57.08.330,Fish Game,2023.1.3,MacIntel,59.88023952,,,,,,,,,,,,,,,8,,,,,,,,,,,,,,513.2883,7,right,1.5,515.3062,0,7,7,7,1,stimuli/bead_g.PNG,stimuli/bead_g.PNG,stimuli/bead_g.PNG,stimuli/bead_g.PNG,stimuli/bead_b.PNG,2,3,right,0.5004,,1
,,,test,A,2024-05-06_14h57.08.330,Fish Game,2023.1.3,MacIntel,59.88023952,,,,,,,,,,,,,,,9,,,,,,,,,,,,,,515.8093,8,right,0.5,516.8903,0,8,8,8,1,stimuli/bead_b.PNG,stimuli/bead_g.PNG,stimuli/bead_g.PNG,stimuli/bead_g.PNG,stimuli/bead_g.PNG,2,3,right,0.5605,,1
,,,test,A,2024-05-06_14h57.08.330,Fish Game,2023.1.3,MacIntel,59.88023952,,,,,,,,,,,,,,,10,,,,,,,,,,,,,,517.3916,9,right,0.5,518.4579,0,9,9,9,1,stimuli/bead_g.PNG,stimuli/bead_b.PNG,stimuli/bead_g.PNG,stimuli/bead_g.PNG,stimuli/bead_g.PNG,2,3,right,0.5442,,1
,,,test,A,2024-05-06_14h57.08.330,Fish Game,2023.1.3,MacIntel,59.88023952,,,,,,,,,,,,,,,11,,,,,,,,,,,,,,518.9593,10,right,1.5,521.0092,0,10,10,10,1,stimuli/bead_g.PNG,stimuli/bead_g.PNG,stimuli/bead_b.PNG,stimuli/bead_g.PNG,stimuli/bead_g.PNG,2,3,right,0.5433,,1
,,,test,A,2024-05-06_14h57.08.330,Fish Game,2023.1.3,MacIntel,59.88023952,,,,,,,,,,,,,,,12,,,,,,,,,,,,,,521.511,11,right,1,523.0947,0,11,11,11,1,stimuli/bead_g.PNG,stimuli/bead_g.PNG,stimuli/bead_g.PNG,stimuli/bead_b.PNG,stimuli/bead_g.PNG,2,3,right,0.5493,,1
,,,test,A,2024-05-06_14h57.08.330,Fish Game,2023.1.3,MacIntel,59.88023952,,,,,,,,,,,,,,,13,,,,,,,,,,,,,,523.5948,12,right,0.5,524.7618,0,12,12,12,1,stimuli/bead_b.PNG,stimuli/bead_g.PNG,stimuli/bead_g.PNG,stimuli/bead_g.PNG,stimuli/bead_b.PNG,0,1,left,0.6341,,0
,,,test,A,2024-05-06_14h57.08.330,Fish Game,2023.1.3,MacIntel,59.88023952,,,,,,,,,,,,,,,14,,,,,,,,,,,,,,525.2635,13,right,0.5,526.3962,0,13,13,13,1,stimuli/bead_b.PNG,stimuli/bead_b.PNG,stimuli/bead_g.PNG,stimuli/bead_g.PNG,stimuli/bead_g.PNG,0,1,left,0.5973,,0
,,,test,A,2024-05-06_14h57.08.330,Fish Game,2023.1.3,MacIntel,59.88023952,,,,,,,,,,,,,,,15,,,,,,,,,,,,,,526.8972,14,right,0.5,528.0467,0,14,14,14,1,stimuli/bead_b.PNG,stimuli/bead_b.PNG,stimuli/bead_b.PNG,stimuli/bead_g.PNG,stimuli/bead_g.PNG,0,1,left,0.6197,,0
,,,test,A,2024-05-06_14h57.08.330,Fish Game,2023.1.3,MacIntel,59.88023952,,,,,,,,,,,,,,,1,,,,,,,,,,,,6,1condition/mainTrials4.xlsx,533.5572,0,right,0.5,534.9684,0,0,0,0,1,stimuli/bead_g.PNG,stimuli/blank.jpg,stimuli/blank.jpg,stimuli/blank.jpg,stimuli/blank.jpg,2,3,right,0.8912,0.0007,1
,,,test,A,2024-05-06_14h57.08.330,Fish Game,2023.1.3,MacIntel,59.88023952,,,,,,,,,,,,,,,2,,,,,,,,,,,,,,535.4696,1,right,1.5,537.5867,0,1,1,1,1,stimuli/bead_g.PNG,stimuli/bead_g.PNG,stimuli/blank.jpg,stimuli/blank.jpg,stimuli/blank.jpg,2,3,right,0.5964,,1
,,,test,A,2024-05-06_14h57.08.330,Fish Game,2023.1.3,MacIntel,59.88023952,,,,,,,,,,,,,,,3,,,,,,,,,,,,,,538.0857,2,right,1,539.7538,0,2,2,2,1,stimuli/bead_b.PNG,stimuli/bead_g.PNG,stimuli/bead_g.PNG,stimuli/blank.jpg,stimuli/blank.jpg,2,3,right,0.6508,,1
,,,test,A,2024-05-06_14h57.08.330,Fish Game,2023.1.3,MacIntel,59.88023952,,,,,,,,,,,,,,,4,,,,,,,,,,,,,,540.2542,3,right,1.5,542.3385,0,3,3,3,1,stimuli/bead_g.PNG,stimuli/bead_b.PNG,stimuli/bead_g.PNG,stimuli/bead_g.PNG,stimuli/blank.jpg,2,3,right,0.5755,,1
,,,test,A,2024-05-06_14h57.08.330,Fish Game,2023.1.3,MacIntel,59.88023952,,,,,,,,,,,,,,,5,,,,,,,,,,,,,,542.838,4,right,1,544.6228,0,4,4,4,1,stimuli/bead_g.PNG,stimuli/bead_g.PNG,stimuli/bead_b.PNG,stimuli/bead_g.PNG,stimuli/bead_g.PNG,2,3,right,0.7693,,1
,,,test,A,2024-05-06_14h57.08.330,Fish Game,2023.1.3,MacIntel,59.88023952,,,,,,,,,,,,,,,6,,,,,,,,,,,,,,545.1252,5,right,0.5,546.2837,0,5,5,5,1,stimuli/bead_y.PNG,stimuli/bead_g.PNG,stimuli/bead_g.PNG,stimuli/bead_b.PNG,stimuli/bead_g.PNG,2,3,right,0.64,,1
,,,test,A,2024-05-06_14h57.08.330,Fish Game,2023.1.3,MacIntel,59.88023952,,,,,,,,,,,,,,,7,,,,,,,,,,,,,,546.7751,6,right,0.5,547.9093,0,6,6,6,1,stimuli/bead_g.PNG,stimuli/bead_y.PNG,stimuli/bead_g.PNG,stimuli/bead_g.PNG,stimuli/bead_b.PNG,2,3,right,0.5995,,1
,,,test,A,2024-05-06_14h57.08.330,Fish Game,2023.1.3,MacIntel,59.88023952,,,,,,,,,,,,,,,8,,,,,,,,,,,,,,548.4099,7,right,0.5,549.559,0,7,7,7,1,stimuli/bead_y.PNG,stimuli/bead_g.PNG,stimuli/bead_y.PNG,stimuli/bead_g.PNG,stimuli/bead_g.PNG,1,2,up,0.6208,,0
,,,test,A,2024-05-06_14h57.08.330,Fish Game,2023.1.3,MacIntel,59.88023952,,,,,,,,,,,,,,,9,,,,,,,,,,,,,,550.0586,8,up,1.5,552.1615,0,8,8,8,1,stimuli/bead_y.PNG,stimuli/bead_y.PNG,stimuli/bead_g.PNG,stimuli/bead_y.PNG,stimuli/bead_g.PNG,1,2,up,0.5834,,1
,,,test,A,2024-05-06_14h57.08.330,Fish Game,2023.1.3,MacIntel,59.88023952,,,,,,,,,,,,,,,10,,,,,,,,,,,,,,552.6617,9,up,0.5,553.762,0,9,9,9,1,stimuli/bead_g.PNG,stimuli/bead_y.PNG,stimuli/bead_y.PNG,stimuli/bead_g.PNG,stimuli/bead_y.PNG,1,2,up,0.585,,1
,,,test,A,2024-05-06_14h57.08.330,Fish Game,2023.1.3,MacIntel,59.88023952,,,,,,,,,,,,,,,11,,,,,,,,,,,,,,554.2618,10,up,0.5,555.2797,0,10,10,10,1,stimuli/bead_y.PNG,stimuli/bead_g.PNG,stimuli/bead_y.PNG,stimuli/bead_y.PNG,stimuli/bead_g.PNG,1,2,up,0.5107,,1
,,,test,A,2024-05-06_14h57.08.330,Fish Game,2023.1.3,MacIntel,59.88023952,,,,,,,,,,,,,,,12,,,,,,,,,,,,,,555.78,11,up,1,557.464,0,11,11,11,1,stimuli/bead_y.PNG,stimuli/bead_y.PNG,stimuli/bead_g.PNG,stimuli/bead_y.PNG,stimuli/bead_y.PNG,1,2,up,0.6491,,1
,,,test,A,2024-05-06_14h57.08.330,Fish Game,2023.1.3,MacIntel,59.88023952,,,,,,,,,,,,,,,13,,,,,,,,,,,,,,557.9656,12,up,1,559.6982,0,12,12,12,1,stimuli/bead_b.PNG,stimuli/bead_y.PNG,stimuli/bead_y.PNG,stimuli/bead_g.PNG,stimuli/bead_y.PNG,1,2,up,0.6992,,1
,,,test,A,2024-05-06_14h57.08.330,Fish Game,2023.1.3,MacIntel,59.88023952,,,,,,,,,,,,,,,14,,,,,,,,,,,,,,560.2,13,up,1,561.8661,0,13,13,13,1,stimuli/bead_y.PNG,stimuli/bead_b.PNG,stimuli/bead_y.PNG,stimuli/bead_y.PNG,stimuli/bead_g.PNG,1,2,up,0.6454,,1
,,,test,A,2024-05-06_14h57.08.330,Fish Game,2023.1.3,MacIntel,59.88023952,,,,,,,,,,,,,,,15,,,,,,,,,,,,,,562.3674,14,up,0.5,563.5164,0,14,14,14,1,stimuli/bead_y.PNG,stimuli/bead_y.PNG,stimuli/bead_b.PNG,stimuli/bead_y.PNG,stimuli/bead_y.PNG,1,2,up,0.6277,,1
,,,test,A,2024-05-06_14h57.08.330,Fish Game,2023.1.3,MacIntel,59.88023952,,,,,,,,,,,,,,,1,,,,,,,,,,,,7,1condition/mainTrials5.xlsx,569.0287,0,left,0.5,570.1409,0,0,0,0,1,stimuli/bead_b.PNG,stimuli/blank.jpg,stimuli/blank.jpg,stimuli/blank.jpg,stimuli/blank.jpg,0,1,left,0.5989,,1
,,,test,A,2024-05-06_14h57.08.330,Fish Game,2023.1.3,MacIntel,59.88023952,,,,,,,,,,,,,,,2,,,,,,,,,,,,,,570.6379,1,left,1,572.8557,0,1,1,1,1,stimuli/bead_b.PNG,stimuli/bead_b.PNG,stimuli/blank.jpg,stimuli/blank.jpg,stimuli/blank.jpg,0,1,left,1.1861,,1
,,,test,A,2024-05-06_14h57.08.330,Fish Game,2023.1.3,MacIntel,59.88023952,,,,,,,,,,,,,,,3,,,,,,,,,,,,,,573.356,2,left,0.5,575.2169,0,2,2,2,1,stimuli/bead_y.PNG,stimuli/bead_b.PNG,stimuli/bead_b.PNG,stimuli/blank.jpg,stimuli/blank.jpg,0,1,left,1.3394,,1
,,,test,A,2024-05-06_14h57.08.330,Fish Game,2023.1.3,MacIntel,59.88023952,,,,,,,,,,,,,,,4,,,,,,,,,,,,,,575.7279,3,left,1,577.4245,0,3,3,3,1,stimuli/bead_b.PNG,stimuli/bead_y.PNG,stimuli/bead_b.PNG,stimuli/bead_b.PNG,stimuli/blank.jpg,0,1,left,0.6681,,1
,,,test,A,2024-05-06_14h57.08.330,Fish Game,2023.1.3,MacIntel,59.88023952,,,,,,,,,,,,,,,5,,,,,,,,,,,,,,577.9259,4,left,1,580.7846,0,4,4,4,1,stimuli/bead_b.PNG,stimuli/bead_b.PNG,stimuli/bead_y.PNG,stimuli/bead_b.PNG,stimuli/bead_b.PNG,0,1,left,1.8321,,1
,,,test,A,2024-05-06_14h57.08.330,Fish Game,2023.1.3,MacIntel,59.88023952,,,,,,,,,,,,,,,6,,,,,,,,,,,,,,581.2736,5,,1,580.7846,0,5,5,5,1,stimuli/bead_g.PNG,stimuli/bead_b.PNG,stimuli/bead_b.PNG,stimuli/bead_y.PNG,stimuli/bead_b.PNG,2,3,right,,,
,,,test,A,2024-05-06_14h57.08.330,Fish Game,2023.1.3,MacIntel,59.88023952,,,,,,,,,,,,,,,7,,,,,,,,,,,,,,586.4801,6,,1.5,580.7846,0,6,6,6,1,stimuli/bead_g.PNG,stimuli/bead_g.PNG,stimuli/bead_b.PNG,stimuli/bead_b.PNG,stimuli/bead_y.PNG,2,2,right,,,
,,,test,A,2024-05-06_14h57.08.330,Fish Game,2023.1.3,MacIntel,59.88023952,,,,,,,,,,,,,,,8,,,,,,,,,,,,,,591.6835,7,,1.5,580.7846,0,7,7,7,1,stimuli/bead_b.PNG,stimuli/bead_g.PNG,stimuli/bead_g.PNG,stimuli/bead_b.PNG,stimuli/bead_b.PNG,2,2,right,,,
,,,test,A,2024-05-06_14h57.08.330,Fish Game,2023.1.3,MacIntel,59.88023952,,,,,,,,,,,,,,,9,,,,,,,,,,,,,,596.8858,8,,0.5,580.7846,0,8,8,8,1,stimuli/bead_g.PNG,stimuli/bead_b.PNG,stimuli/bead_g.PNG,stimuli/bead_g.PNG,stimuli/bead_b.PNG,2,2,right,,,
,,,test,A,2024-05-06_14h57.08.330,Fish Game,2023.1.3,MacIntel,59.88023952,,,,,,,,,,,,,,,10,,,,,,,,,,,,,,602.0886,9,,1.5,580.7846,0,9,9,9,1,stimuli/bead_b.PNG,stimuli/bead_g.PNG,stimuli/bead_b.PNG,stimuli/bead_g.PNG,stimuli/bead_g.PNG,2,2,right,,,
,,,test,A,2024-05-06_14h57.08.330,Fish Game,2023.1.3,MacIntel,59.88023952,,,,,,,,,,,,,,,11,,,,,,,,,,,,,,607.2968,10,up,1.5,610.0435,0,10,10,10,1,stimuli/bead_g.PNG,stimuli/bead_b.PNG,stimuli/bead_g.PNG,stimuli/bead_b.PNG,stimuli/bead_g.PNG,2,2,right,1.2241,,0
,,,test,A,2024-05-06_14h57.08.330,Fish Game,2023.1.3,MacIntel,59.88023952,,,,,,,,,,,,,,,12,,,,,,,,,,,,,,610.5435,11,right,0.5,611.6445,0,11,11,11,1,stimuli/bead_g.PNG,stimuli/bead_g.PNG,stimuli/bead_b.PNG,stimuli/bead_g.PNG,stimuli/bead_b.PNG,2,2,right,0.5845,,1
,,,test,A,2024-05-06_14h57.08.330,Fish Game,2023.1.3,MacIntel,59.88023952,,,,,,,,,,,,,,,13,,,,,,,,,,,,,,612.1445,12,,0.5,611.6445,0,12,12,12,1,stimuli/bead_g.PNG,stimuli/bead_g.PNG,stimuli/bead_g.PNG,stimuli/bead_b.PNG,stimuli/bead_g.PNG,2,3,right,,,
,,,test,A,2024-05-06_14h57.08.330,Fish Game,2023.1.3,MacIntel,59.88023952,,,,,,,,,,,,,,,14,,,,,,,,,,,,,,617.3498,13,,1,611.6445,0,13,13,13,1,stimuli/bead_y.PNG,stimuli/bead_g.PNG,stimuli/bead_g.PNG,stimuli/bead_g.PNG,stimuli/bead_b.PNG,2,3,right,,,
,,,test,A,2024-05-06_14h57.08.330,Fish Game,2023.1.3,MacIntel,59.88023952,,,,,,,,,,,,,,,15,,,,,,,,,,,,,,622.5516,14,,0.5,611.6445,0,14,14,14,1,stimuli/bead_g.PNG,stimuli/bead_y.PNG,stimuli/bead_g.PNG,stimuli/bead_g.PNG,stimuli/bead_g.PNG,2,3,right,,,
,,,test,A,2024-05-06_14h57.08.330,Fish Game,2023.1.3,MacIntel,59.88023952,,,,,,,,,,,,,,,1,,,,,,,,,,,,8,1condition/mainTrials7.xlsx,632.762,0,,0.5,611.6445,0,0,0,0,1,stimuli/bead_y.PNG,stimuli/blank.jpg,stimuli/blank.jpg,stimuli/blank.jpg,stimuli/blank.jpg,1,2,up,,,
,,,test,A,2024-05-06_14h57.08.330,Fish Game,2023.1.3,MacIntel,59.88023952,,,,,,,,,,,,,,,2,,,,,,,,,,,,,,637.9753,1,,0.5,611.6445,0,1,1,1,1,stimuli/bead_y.PNG,stimuli/bead_y.PNG,stimuli/blank.jpg,stimuli/blank.jpg,stimuli/blank.jpg,1,2,up,,,
,,,test,A,2024-05-06_14h57.08.330,Fish Game,2023.1.3,MacIntel,59.88023952,,,,,,,,,,,,,,,3,,,,,,,,,,,,,,643.1799,2,,0.5,611.6445,0,2,2,2,1,stimuli/bead_g.PNG,stimuli/bead_y.PNG,stimuli/bead_y.PNG,stimuli/blank.jpg,stimuli/blank.jpg,1,2,up,,,
,,,test,A,2024-05-06_14h57.08.330,Fish Game,2023.1.3,MacIntel,59.88023952,,,,,,,,,,,,,,,4,,,,,,,,,,,,,,648.3838,3,,1.5,611.6445,0,3,3,3,1,stimuli/bead_y.PNG,stimuli/bead_g.PNG,stimuli/bead_y.PNG,stimuli/bead_y.PNG,stimuli/blank.jpg,1,2,up,,,
,,,test,A,2024-05-06_14h57.08.330,Fish Game,2023.1.3,MacIntel,59.88023952,,,,,,,,,,,,,,,5,,,,,,,,,,,,,,653.585,4,,1.5,611.6445,0,4,4,4,1,stimuli/bead_y.PNG,stimuli/bead_y.PNG,stimuli/bead_g.PNG,stimuli/bead_y.PNG,stimuli/bead_y.PNG,1,2,up,,,
,,,test,A,2024-05-06_14h57.08.330,Fish Game,2023.1.3,MacIntel,59.88023952,,,,,,,,,,,,,,,6,,,,,,,,,,,,,,658.7878,5,,0.5,611.6445,0,5,5,5,1,stimuli/bead_y.PNG,stimuli/bead_y.PNG,stimuli/bead_y.PNG,stimuli/bead_g.PNG,stimuli/bead_y.PNG,1,2,up,,,
,,,test,A,2024-05-06_14h57.08.330,Fish Game,2023.1.3,MacIntel,59.88023952,,,,,,,,,,,,,,,7,,,,,,,,,,,,,,663.9898,6,,0.5,611.6445,0,6,6,6,1,stimuli/bead_b.PNG,stimuli/bead_y.PNG,stimuli/bead_y.PNG,stimuli/bead_y.PNG,stimuli/bead_g.PNG,1,2,up,,,
,,,test,A,2024-05-06_14h57.08.330,Fish Game,2023.1.3,MacIntel,59.88023952,,,,,,,,,,,,,,,8,,,,,,,,,,,,,,669.1929,7,,1.5,611.6445,0,7,7,7,1,stimuli/bead_y.PNG,stimuli/bead_b.PNG,stimuli/bead_y.PNG,stimuli/bead_y.PNG,stimuli/bead_y.PNG,1,2,up,,,
,,,test,A,2024-05-06_14h57.08.330,Fish Game,2023.1.3,MacIntel,59.88023952,,,,,,,,,,,,,,,9,,,,,,,,,,,,,,674.3976,8,,1.5,611.6445,0,8,8,8,1,stimuli/bead_y.PNG,stimuli/bead_y.PNG,stimuli/bead_b.PNG,stimuli/bead_y.PNG,stimuli/bead_y.PNG,1,2,right,,,
,,,test,A,2024-05-06_14h57.08.330,Fish Game,2023.1.3,MacIntel,59.88023952,,,,,,,,,,,,,,,10,,,,,,,,,,,,,,679.6006,9,,0.5,611.6445,0,9,9,9,1,stimuli/bead_g.PNG,stimuli/bead_y.PNG,stimuli/bead_y.PNG,stimuli/bead_b.PNG,stimuli/bead_y.PNG,2,3,right,,,
,,,test,A,2024-05-06_14h57.08.330,Fish Game,2023.1.3,MacIntel,59.88023952,,,,,,,,,,,,,,,11,,,,,,,,,,,,,,684.8025,10,,0.5,611.6445,0,10,10,10,1,stimuli/bead_g.PNG,stimuli/bead_g.PNG,stimuli/bead_y.PNG,stimuli/bead_y.PNG,stimuli/bead_b.PNG,2,3,right,,,
,,,test,A,2024-05-06_14h57.08.330,Fish Game,2023.1.3,MacIntel,59.88023952,,,,,,,,,,,,,,,12,,,,,,,,,,,,,,690.0053,11,,1,611.6445,0,11,11,11,1,stimuli/bead_y.PNG,stimuli/bead_g.PNG,stimuli/bead_g.PNG,stimuli/bead_y.PNG,stimuli/bead_y.PNG,2,3,right,,,
,,,test,A,2024-05-06_14h57.08.330,Fish Game,2023.1.3,MacIntel,59.88023952,,,,,,,,,,,,,,,13,,,,,,,,,,,,,,695.2083,12,,0.5,611.6445,0,12,12,12,1,stimuli/bead_g.PNG,stimuli/bead_y.PNG,stimuli/bead_g.PNG,stimuli/bead_g.PNG,stimuli/bead_y.PNG,2,3,right,,,
,,,test,A,2024-05-06_14h57.08.330,Fish Game,2023.1.3,MacIntel,59.88023952,,,,,,,,,,,,,,,14,,,,,,,,,,,,,,700.4113,13,,0.5,611.6445,0,13,13,13,1,stimuli/bead_g.PNG,stimuli/bead_g.PNG,stimuli/bead_y.PNG,stimuli/bead_g.PNG,stimuli/bead_g.PNG,2,3,right,,,
,,,test,A,2024-05-06_14h57.08.330,Fish Game,2023.1.3,MacIntel,59.88023952,,,,,,,,,,,,,,,15,,,,,,,,,,,,,,705.614,14,,1.5,611.6445,0,14,14,14,1,stimuli/bead_g.PNG,stimuli/bead_g.PNG,stimuli/bead_g.PNG,stimuli/bead_y.PNG,stimuli/bead_g.PNG,2,3,right,,,
,,,test,A,2024-05-06_14h57.08.330,Fish Game,2023.1.3,MacIntel,59.88023952,,,,,,,,,,,,,,,1,,,,,,,,,,,,9,1condition/mainTrials9.xlsx,715.8355,0,,1,611.6445,0,0,0,0,1,stimuli/bead_g.PNG,stimuli/blank.jpg,stimuli/blank.jpg,stimuli/blank.jpg,stimuli/blank.jpg,2,3,right,,,
,,,test,A,2024-05-06_14h57.08.330,Fish Game,2023.1.3,MacIntel,59.88023952,,,,,,,,,,,,,,,2,,,,,,,,,,,,,,721.0427,1,,0.5,611.6445,0,1,1,1,1,stimuli/bead_g.PNG,stimuli/bead_g.PNG,stimuli/blank.jpg,stimuli/blank.jpg,stimuli/blank.jpg,2,3,right,,,
,,,test,A,2024-05-06_14h57.08.330,Fish Game,2023.1.3,MacIntel,59.88023952,,,,,,,,,,,,,,,3,,,,,,,,,,,,,,726.3207,2,,0.5,611.6445,0,2,2,2,1,stimuli/bead_b.PNG,stimuli/bead_g.PNG,stimuli/bead_g.PNG,stimuli/blank.jpg,stimuli/blank.jpg,2,3,right,,,
,,,test,A,2024-05-06_14h57.08.330,Fish Game,2023.1.3,MacIntel,59.88023952,,,,,,,,,,,,,,,4,,,,,,,,,,,,,,731.5311,3,,0.5,611.6445,0,3,3,3,1,stimuli/bead_g.PNG,stimuli/bead_b.PNG,stimuli/bead_g.PNG,stimuli/bead_g.PNG,stimuli/blank.jpg,2,3,right,,,
,,,test,A,2024-05-06_14h57.08.330,Fish Game,2023.1.3,MacIntel,59.88023952,,,,,,,,,,,,,,,5,,,,,,,,,,,,,,736.7493,4,,0.5,611.6445,0,4,4,4,1,stimuli/bead_g.PNG,stimuli/bead_g.PNG,stimuli/bead_b.PNG,stimuli/bead_g.PNG,stimuli/bead_g.PNG,2,3,right,,,
,,,test,A,2024-05-06_14h57.08.330,Fish Game,2023.1.3,MacIntel,59.88023952,,,,,,,,,,,,,,,6,,,,,,,,,,,,,,741.9519,5,,1,611.6445,0,5,5,5,1,stimuli/bead_b.PNG,stimuli/bead_g.PNG,stimuli/bead_g.PNG,stimuli/bead_b.PNG,stimuli/bead_g.PNG,2,3,right,,,
,,,test,A,2024-05-06_14h57.08.330,Fish Game,2023.1.3,MacIntel,59.88023952,,,,,,,,,,,,,,,7,,,,,,,,,,,,,,747.1551,6,,0.5,611.6445,0,6,6,6,1,stimuli/bead_g.PNG,stimuli/bead_b.PNG,stimuli/bead_g.PNG,stimuli/bead_g.PNG,stimuli/bead_b.PNG,2,3,right,,,
,,,test,A,2024-05-06_14h57.08.330,Fish Game,2023.1.3,MacIntel,59.88023952,,,,,,,,,,,,,,,8,,,,,,,,,,,,,,752.3667,7,,0.5,611.6445,0,7,7,7,1,stimuli/bead_g.PNG,stimuli/bead_g.PNG,stimuli/bead_b.PNG,stimuli/bead_g.PNG,stimuli/bead_g.PNG,2,3,right,,,
,,,test,A,2024-05-06_14h57.08.330,Fish Game,2023.1.3,MacIntel,59.88023952,,,,,,,,,,,,,,,9,,,,,,,,,,,,,,757.577,8,,1.5,611.6445,0,8,8,8,1,stimuli/bead_b.PNG,stimuli/bead_g.PNG,stimuli/bead_g.PNG,stimuli/bead_b.PNG,stimuli/bead_g.PNG,0,1,left,,,
,,,test,A,2024-05-06_14h57.08.330,Fish Game,2023.1.3,MacIntel,59.88023952,,,,,,,,,,,,,,,10,,,,,,,,,,,,,,762.7793,9,,0.5,611.6445,0,9,9,9,1,stimuli/bead_y.PNG,stimuli/bead_b.PNG,stimuli/bead_g.PNG,stimuli/bead_g.PNG,stimuli/bead_b.PNG,0,1,left,,,
,,,test,A,2024-05-06_14h57.08.330,Fish Game,2023.1.3,MacIntel,59.88023952,,,,,,,,,,,,,,,11,,,,,,,,,,,,,,767.9817,10,,1.5,611.6445,0,10,10,10,1,stimuli/bead_b.PNG,stimuli/bead_y.PNG,stimuli/bead_b.PNG,stimuli/bead_g.PNG,stimuli/bead_g.PNG,0,1,left,,,
,,,test,A,2024-05-06_14h57.08.330,Fish Game,2023.1.3,MacIntel,59.88023952,,,,,,,,,,,,,,,12,,,,,,,,,,,,,,773.1863,11,,0.5,611.6445,0,11,11,11,1,stimuli/bead_b.PNG,stimuli/bead_b.PNG,stimuli/bead_y.PNG,stimuli/bead_b.PNG,stimuli/bead_g.PNG,0,1,left,,,
,,,test,A,2024-05-06_14h57.08.330,Fish Game,2023.1.3,MacIntel,59.88023952,,,,,,,,,,,,,,,13,,,,,,,,,,,,,,778.4019,12,,0.5,611.6445,0,12,12,12,1,stimuli/bead_b.PNG,stimuli/bead_b.PNG,stimuli/bead_b.PNG,stimuli/bead_y.PNG,stimuli/bead_b.PNG,0,1,left,,,
,,,test,A,2024-05-06_14h57.08.330,Fish Game,2023.1.3,MacIntel,59.88023952,,,,,,,,,,,,,,,14,,,,,,,,,,,,,,783.6075,13,,0.5,611.6445,0,13,13,13,1,stimuli/bead_g.PNG,stimuli/bead_b.PNG,stimuli/bead_b.PNG,stimuli/bead_b.PNG,stimuli/bead_y.PNG,0,1,left,,,
,,,test,A,2024-05-06_14h57.08.330,Fish Game,2023.1.3,MacIntel,59.88023952,,,,,,,,,,,,,,,15,,,,,,,,,,,,,,788.8099,14,,1,611.6445,0,14,14,14,1,stimuli/bead_b.PNG,stimuli/bead_g.PNG,stimuli/bead_b.PNG,stimuli/bead_b.PNG,stimuli/bead_b.PNG,0,1,left,,,
,,,test,A,2024-05-06_14h57.08.330,Fish Game,2023.1.3,MacIntel,59.88023952,,,,,,,,,,,,,,,1,,,,,,,,,,,,10,1condition/mainTrials6.xlsx,799.0218,0,,1.5,611.6445,0,0,0,0,1,stimuli/bead_b.PNG,stimuli/blank.jpg,stimuli/blank.jpg,stimuli/blank.jpg,stimuli/blank.jpg,1,2,up,,,
,,,test,A,2024-05-06_14h57.08.330,Fish Game,2023.1.3,MacIntel,59.88023952,,,,,,,,,,,,,,,2,,,,,,,,,,,,,,804.2367,1,,0.5,611.6445,0,1,1,1,1,stimuli/bead_y.PNG,stimuli/bead_b.PNG,stimuli/blank.jpg,stimuli/blank.jpg,stimuli/blank.jpg,1,2,up,,,
,,,test,A,2024-05-06_14h57.08.330,Fish Game,2023.1.3,MacIntel,59.88023952,,,,,,,,,,,,,,,3,,,,,,,,,,,,,,809.4383,2,,1,611.6445,0,2,2,2,1,stimuli/bead_y.PNG,stimuli/bead_y.PNG,stimuli/bead_b.PNG,stimuli/blank.jpg,stimuli/blank.jpg,1,2,up,,,
,,,test,A,2024-05-06_14h57.08.330,Fish Game,2023.1.3,MacIntel,59.88023952,,,,,,,,,,,,,,,4,,,,,,,,,,,,,,814.6422,3,,1.5,611.6445,0,3,3,3,1,stimuli/bead_y.PNG,stimuli/bead_y.PNG,stimuli/bead_y.PNG,stimuli/bead_b.PNG,stimuli/blank.jpg,1,2,up,,,
,,,test,A,2024-05-06_14h57.08.330,Fish Game,2023.1.3,MacIntel,59.88023952,,,,,,,,,,,,,,,5,,,,,,,,,,,,,,819.8452,4,,0.5,611.6445,0,4,4,4,1,stimuli/bead_g.PNG,stimuli/bead_y.PNG,stimuli/bead_y.PNG,stimuli/bead_y.PNG,stimuli/bead_b.PNG,2,3,right,,,
,,,test,A,2024-05-06_14h57.08.330,Fish Game,2023.1.3,MacIntel,59.88023952,,,,,,,,,,,,,,,6,,,,,,,,,,,,,,825.0479,5,,0.5,611.6445,0,5,5,5,1,stimuli/bead_g.PNG,stimuli/bead_g.PNG,stimuli/bead_y.PNG,stimuli/bead_y.PNG,stimuli/bead_y.PNG,2,3,right,,,
,,,test,A,2024-05-06_14h57.08.330,Fish Game,2023.1.3,MacIntel,59.88023952,,,,,,,,,,,,,,,7,,,,,,,,,,,,,,830.2504,6,,0.5,611.6445,0,6,6,6,1,stimuli/bead_y.PNG,stimuli/bead_g.PNG,stimuli/bead_g.PNG,stimuli/bead_y.PNG,stimuli/bead_y.PNG,2,3,right,,,
,,,test,A,2024-05-06_14h57.08.330,Fish Game,2023.1.3,MacIntel,59.88023952,,,,,,,,,,,,,,,8,,,,,,,,,,,,,,835.4534,7,,1.5,611.6445,0,7,7,7,1,stimuli/bead_g.PNG,stimuli/bead_y.PNG,stimuli/bead_g.PNG,stimuli/bead_g.PNG,stimuli/bead_y.PNG,2,3,right,,,
,,,test,A,2024-05-06_14h57.08.330,Fish Game,2023.1.3,MacIntel,59.88023952,,,,,,,,,,,,,,,9,,,,,,,,,,,,,,840.6569,8,,1.5,611.6445,0,8,8,8,1,stimuli/bead_g.PNG,stimuli/bead_g.PNG,stimuli/bead_y.PNG,stimuli/bead_g.PNG,stimuli/bead_g.PNG,2,3,right,,,
,,,test,A,2024-05-06_14h57.08.330,Fish Game,2023.1.3,MacIntel,59.88023952,,,,,,,,,,,,,,,10,,,,,,,,,,,,,,845.8631,9,,1,611.6445,0,9,9,9,1,stimuli/bead_g.PNG,stimuli/bead_g.PNG,stimuli/bead_g.PNG,stimuli/bead_y.PNG,stimuli/bead_g.PNG,2,3,right,,,
,,,test,A,2024-05-06_14h57.08.330,Fish Game,2023.1.3,MacIntel,59.88023952,,,,,,,,,,,,,,,11,,,,,,,,,,,,,,851.0795,10,,1.5,611.6445,0,10,10,10,1,stimuli/bead_y.PNG,stimuli/bead_g.PNG,stimuli/bead_g.PNG,stimuli/bead_g.PNG,stimuli/bead_y.PNG,1,2,up,,,
,,,test,A,2024-05-06_14h57.08.330,Fish Game,2023.1.3,MacIntel,59.88023952,,,,,,,,,,,,,,,12,,,,,,,,,,,,,,856.2826,11,,0.5,611.6445,0,11,11,11,1,stimuli/bead_b.PNG,stimuli/bead_y.PNG,stimuli/bead_g.PNG,stimuli/bead_g.PNG,stimuli/bead_g.PNG,1,2,up,,,
,,,test,A,2024-05-06_14h57.08.330,Fish Game,2023.1.3,MacIntel,59.88023952,,,,,,,,,,,,,,,13,,,,,,,,,,,,,,861.4844,12,,0.5,611.6445,0,12,12,12,1,stimuli/bead_y.PNG,stimuli/bead_b.PNG,stimuli/bead_y.PNG,stimuli/bead_g.PNG,stimuli/bead_g.PNG,1,2,up,,,
,,,test,A,2024-05-06_14h57.08.330,Fish Game,2023.1.3,MacIntel,59.88023952,,,,,,,,,,,,,,,14,,,,,,,,,,,,,,866.6896,13,,1,611.6445,0,13,13,13,1,stimuli/bead_y.PNG,stimuli/bead_y.PNG,stimuli/bead_b.PNG,stimuli/bead_y.PNG,stimuli/bead_g.PNG,1,2,up,,,
,,,test,A,2024-05-06_14h57.08.330,Fish Game,2023.1.3,MacIntel,59.88023952,,,,,,,,,,,,,,,15,,,,,,,,,,,,,,871.9072,14,,1.5,611.6445,0,14,14,14,1,stimuli/bead_y.PNG,stimuli/bead_y.PNG,stimuli/bead_y.PNG,stimuli/bead_b.PNG,stimuli/bead_y.PNG,1,2,up,,,
