welcome_key_keys,welcome_key_rt,welcome_key_duration,study_id,path_id,date,expName,psychopyVersion,OS,frameRate,prolific_id,ins1_key_keys,ins1_key_rt,ins1_key_duration,practice_trial_started,practice_trial_num,prac_key_resp_keys,prac_key_resp_rt,prac_key_resp_duration,prac_resp_corr,prac_trials.thisRepN,prac_trials.thisTrialN,prac_trials.thisN,prac_trials.thisIndex,prac_trials.ran,trial,fish1_p,fish2_p,fish3_p,fish4_p,fish5_p,pond_p,pond_p2,pond_p3,ExpStart_key_keys,ExpStart_key_rt,ExpStart_key_duration,block number,block assignment,main_trial_started,main_trial_num,trial_resp_keys,trial_resp_rt,trial_resp_duration,main_resp_corr,fish_interval,key_resp_time,trials.thisRepN,trials.thisTrialN,trials.thisN,trials.thisIndex,trials.ran,fish1,fish2,fish3,fish4,fish5,pond,pond2,pond3
space,1.1694,,1A,path,2024-04-22_18h21.10.763,Fish Game,2023.1.3,MacIntel,59.17159763,pid,,,,,,,,,,,,,,,,,,,,,,,,,,,,,,,,,,,,,,,,,,,,,,,,,
,,,1A,path,2024-04-22_18h21.10.763,Fish Game,2023.1.3,MacIntel,59.17159763,pid,space,74.5986,,,,,,,,,,,,,,,,,,,,,,,,,,,,,,,,,,,,,,,,,,,,,,,
,,,1A,path,2024-04-22_18h21.10.763,Fish Game,2023.1.3,MacIntel,59.17159763,pid,,,,,,,,,,,,,,,,,,,,,,,,,,,,,,,,,,,,,,,,,,,,,,,,,
,,,1A,path,2024-04-22_18h21.10.763,Fish Game,2023.1.3,MacIntel,59.17159763,pid,,,,,,,,,,,,,,,,,,,,,,,,,,,,,,,,,,,,,,,,,,,,,,,,,
,,,1A,path,2024-04-22_18h21.10.763,Fish Game,2023.1.3,MacIntel,59.17159763,pid,,,,,,,,,,,,,,,,,,,,,,,,,,,,,,,,,,,,,,,,,,,,,,,,,
,,,1A,path,2024-04-22_18h21.10.763,Fish Game,2023.1.3,MacIntel,59.17159763,pid,,,,,,,,,,,,,,,,,,,,,,,,,,,,,,,,,,,,,,,,,,,,,,,,,
,,,1A,path,2024-04-22_18h21.10.763,Fish Game,2023.1.3,MacIntel,59.17159763,pid,,,,207.4102,0,left,1.1882,,1,0,0,0,0,1,1,stimuli/bead_b.PNG,stimuli/blank.jpg,stimuli/blank.jpg,stimuli/blank.jpg,stimuli/blank.jpg,0,1,left,,,,,,,,,,,,,,,,,,,,,,,,,,
,,,1A,path,2024-04-22_18h21.10.763,Fish Game,2023.1.3,MacIntel,59.17159763,pid,,,,209.9379,1,left,0.6814,,1,0,1,1,1,1,2,stimuli/bead_b.PNG,stimuli/bead_b.PNG,stimuli/blank.jpg,stimuli/blank.jpg,stimuli/blank.jpg,0,1,left,,,,,,,,,,,,,,,,,,,,,,,,,,
,,,1A,path,2024-04-22_18h21.10.763,Fish Game,2023.1.3,MacIntel,59.17159763,pid,,,,211.9513,2,right,0.9654,,0,0,2,2,2,1,3,stimuli/bead_g.PNG,stimuli/bead_b.PNG,stimuli/bead_b.PNG,stimuli/blank.jpg,stimuli/blank.jpg,0,1,left,,,,,,,,,,,,,,,,,,,,,,,,,,
,,,1A,path,2024-04-22_18h21.10.763,Fish Game,2023.1.3,MacIntel,59.17159763,pid,,,,215.2477,3,up,0.7001,,0,0,3,3,3,1,4,stimuli/bead_b.PNG,stimuli/bead_g.PNG,stimuli/bead_b.PNG,stimuli/bead_b.PNG,stimuli/blank.jpg,0,1,left,,,,,,,,,,,,,,,,,,,,,,,,,,
,,,1A,path,2024-04-22_18h21.10.763,Fish Game,2023.1.3,MacIntel,59.17159763,pid,,,,218.2801,4,up,0.5323,,0,0,4,4,4,1,5,stimuli/bead_b.PNG,stimuli/bead_b.PNG,stimuli/bead_g.PNG,stimuli/bead_b.PNG,stimuli/bead_b.PNG,0,1,left,,,,,,,,,,,,,,,,,,,,,,,,,,
,,,1A,path,2024-04-22_18h21.10.763,Fish Game,2023.1.3,MacIntel,59.17159763,pid,,,,221.1555,5,up,0.5785,,0,0,5,5,5,1,6,stimuli/bead_y.PNG,stimuli/bead_b.PNG,stimuli/bead_b.PNG,stimuli/bead_g.PNG,stimuli/bead_b.PNG,0,1,left,,,,,,,,,,,,,,,,,,,,,,,,,,
,,,1A,path,2024-04-22_18h21.10.763,Fish Game,2023.1.3,MacIntel,59.17159763,pid,,,,223.5568,6,up,0.5071,,0,0,6,6,6,1,7,stimuli/bead_b.PNG,stimuli/bead_y.PNG,stimuli/bead_b.PNG,stimuli/bead_b.PNG,stimuli/bead_g.PNG,0,1,left,,,,,,,,,,,,,,,,,,,,,,,,,,
,,,1A,path,2024-04-22_18h21.10.763,Fish Game,2023.1.3,MacIntel,59.17159763,pid,,,,225.388,7,up,0.5392,,1,0,7,7,7,1,8,stimuli/bead_y.PNG,stimuli/bead_b.PNG,stimuli/bead_y.PNG,stimuli/bead_b.PNG,stimuli/bead_b.PNG,1,2,up,,,,,,,,,,,,,,,,,,,,,,,,,,
,,,1A,path,2024-04-22_18h21.10.763,Fish Game,2023.1.3,MacIntel,59.17159763,pid,,,,227.2526,8,up,0.5192,,1,0,8,8,8,1,9,stimuli/bead_y.PNG,stimuli/bead_y.PNG,stimuli/bead_b.PNG,stimuli/bead_y.PNG,stimuli/bead_b.PNG,1,2,up,,,,,,,,,,,,,,,,,,,,,,,,,,
,,,1A,path,2024-04-22_18h21.10.763,Fish Game,2023.1.3,MacIntel,59.17159763,pid,,,,230.1009,9,,,,,0,9,9,9,1,10,stimuli/bead_b.PNG,stimuli/bead_y.PNG,stimuli/bead_y.PNG,stimuli/bead_b.PNG,stimuli/bead_y.PNG,1,2,up,,,,,,,,,,,,,,,,,,,,,,,,,,
,,,1A,path,2024-04-22_18h21.10.763,Fish Game,2023.1.3,MacIntel,59.17159763,pid,,,,235.6261,10,left,0.4985,,0,0,10,10,10,1,11,stimuli/bead_y.PNG,stimuli/bead_b.PNG,stimuli/bead_y.PNG,stimuli/bead_y.PNG,stimuli/bead_b.PNG,1,2,up,,,,,,,,,,,,,,,,,,,,,,,,,,
,,,1A,path,2024-04-22_18h21.10.763,Fish Game,2023.1.3,MacIntel,59.17159763,pid,,,,237.4475,11,left,0.7213,,0,0,11,11,11,1,12,stimuli/bead_y.PNG,stimuli/bead_y.PNG,stimuli/bead_b.PNG,stimuli/bead_y.PNG,stimuli/bead_y.PNG,1,2,up,,,,,,,,,,,,,,,,,,,,,,,,,,
,,,1A,path,2024-04-22_18h21.10.763,Fish Game,2023.1.3,MacIntel,59.17159763,pid,,,,239.4926,12,,,,,0,12,12,12,1,13,stimuli/bead_b.PNG,stimuli/bead_y.PNG,stimuli/bead_y.PNG,stimuli/bead_b.PNG,stimuli/bead_y.PNG,1,2,up,,,,,,,,,,,,,,,,,,,,,,,,,,
,,,1A,path,2024-04-22_18h21.10.763,Fish Game,2023.1.3,MacIntel,59.17159763,pid,,,,245.0261,13,left,0.5356,,0,0,13,13,13,1,14,stimuli/bead_y.PNG,stimuli/bead_b.PNG,stimuli/bead_y.PNG,stimuli/bead_y.PNG,stimuli/bead_b.PNG,1,2,up,,,,,,,,,,,,,,,,,,,,,,,,,,
,,,1A,path,2024-04-22_18h21.10.763,Fish Game,2023.1.3,MacIntel,59.17159763,pid,,,,246.8852,14,left,0.9653,,0,0,14,14,14,1,15,stimuli/bead_y.PNG,stimuli/bead_y.PNG,stimuli/bead_b.PNG,stimuli/bead_y.PNG,stimuli/bead_y.PNG,1,2,up,,,,,,,,,,,,,,,,,,,,,,,,,,
,,,1A,path,2024-04-22_18h21.10.763,Fish Game,2023.1.3,MacIntel,59.17159763,pid,,,,255.1949,0,right,0.6958,,1,0,0,0,0,1,1,stimuli/bead_g.PNG,stimuli/blank.jpg,stimuli/blank.jpg,stimuli/blank.jpg,stimuli/blank.jpg,2,3,right,,,,,,,,,,,,,,,,,,,,,,,,,,
,,,1A,path,2024-04-22_18h21.10.763,Fish Game,2023.1.3,MacIntel,59.17159763,pid,,,,257.2252,1,right,0.6127,,1,0,1,1,1,1,2,stimuli/bead_g.PNG,stimuli/bead_g.PNG,stimuli/blank.jpg,stimuli/blank.jpg,stimuli/blank.jpg,2,3,right,,,,,,,,,,,,,,,,,,,,,,,,,,
,,,1A,path,2024-04-22_18h21.10.763,Fish Game,2023.1.3,MacIntel,59.17159763,pid,,,,259.6731,2,up,0.4877,,0,0,2,2,2,1,3,stimuli/bead_b.PNG,stimuli/bead_g.PNG,stimuli/bead_g.PNG,stimuli/blank.jpg,stimuli/blank.jpg,2,3,right,,,,,,,,,,,,,,,,,,,,,,,,,,
,,,1A,path,2024-04-22_18h21.10.763,Fish Game,2023.1.3,MacIntel,59.17159763,pid,,,,261.4877,3,left,0.5474,,0,0,3,3,3,1,4,stimuli/bead_g.PNG,stimuli/bead_b.PNG,stimuli/bead_g.PNG,stimuli/bead_g.PNG,stimuli/blank.jpg,2,3,right,,,,,,,,,,,,,,,,,,,,,,,,,,
,,,1A,path,2024-04-22_18h21.10.763,Fish Game,2023.1.3,MacIntel,59.17159763,pid,,,,263.8707,4,left,0.5342,,0,0,4,4,4,1,5,stimuli/bead_b.PNG,stimuli/bead_g.PNG,stimuli/bead_b.PNG,stimuli/bead_g.PNG,stimuli/bead_g.PNG,2,3,right,,,,,,,,,,,,,,,,,,,,,,,,,,
,,,1A,path,2024-04-22_18h21.10.763,Fish Game,2023.1.3,MacIntel,59.17159763,pid,,,,265.735,5,left,0.9304,0.0009,0,0,5,5,5,1,6,stimuli/bead_g.PNG,stimuli/bead_b.PNG,stimuli/bead_g.PNG,stimuli/bead_b.PNG,stimuli/bead_g.PNG,2,3,right,,,,,,,,,,,,,,,,,,,,,,,,,,
,,,1A,path,2024-04-22_18h21.10.763,Fish Game,2023.1.3,MacIntel,59.17159763,pid,,,,268.4974,6,right,0.5051,,1,0,6,6,6,1,7,stimuli/bead_g.PNG,stimuli/bead_g.PNG,stimuli/bead_b.PNG,stimuli/bead_g.PNG,stimuli/bead_b.PNG,2,3,right,,,,,,,,,,,,,,,,,,,,,,,,,,
,,,1A,path,2024-04-22_18h21.10.763,Fish Game,2023.1.3,MacIntel,59.17159763,pid,,,,271.3308,7,right,0.7185,,1,0,7,7,7,1,8,stimuli/bead_g.PNG,stimuli/bead_g.PNG,stimuli/bead_g.PNG,stimuli/bead_b.PNG,stimuli/bead_g.PNG,2,3,right,,,,,,,,,,,,,,,,,,,,,,,,,,
,,,1A,path,2024-04-22_18h21.10.763,Fish Game,2023.1.3,MacIntel,59.17159763,pid,,,,274.3762,8,right,0.6181,,0,0,8,8,8,1,9,stimuli/bead_y.PNG,stimuli/bead_g.PNG,stimuli/bead_g.PNG,stimuli/bead_g.PNG,stimuli/bead_b.PNG,1,2,up,,,,,,,,,,,,,,,,,,,,,,,,,,
,,,1A,path,2024-04-22_18h21.10.763,Fish Game,2023.1.3,MacIntel,59.17159763,pid,,,,277.3245,9,up,0.6054,,1,0,9,9,9,1,10,stimuli/bead_y.PNG,stimuli/bead_y.PNG,stimuli/bead_g.PNG,stimuli/bead_g.PNG,stimuli/bead_g.PNG,1,2,up,,,,,,,,,,,,,,,,,,,,,,,,,,
,,,1A,path,2024-04-22_18h21.10.763,Fish Game,2023.1.3,MacIntel,59.17159763,pid,,,,279.2544,10,up,0.4993,,1,0,10,10,10,1,11,stimuli/bead_y.PNG,stimuli/bead_y.PNG,stimuli/bead_y.PNG,stimuli/bead_g.PNG,stimuli/bead_g.PNG,1,2,up,,,,,,,,,,,,,,,,,,,,,,,,,,
,,,1A,path,2024-04-22_18h21.10.763,Fish Game,2023.1.3,MacIntel,59.17159763,pid,,,,281.5852,11,up,0.4963,,1,0,11,11,11,1,12,stimuli/bead_g.PNG,stimuli/bead_y.PNG,stimuli/bead_y.PNG,stimuli/bead_y.PNG,stimuli/bead_g.PNG,1,2,up,,,,,,,,,,,,,,,,,,,,,,,,,,
,,,1A,path,2024-04-22_18h21.10.763,Fish Game,2023.1.3,MacIntel,59.17159763,pid,,,,283.4167,12,up,0.6171,,1,0,12,12,12,1,13,stimuli/bead_y.PNG,stimuli/bead_g.PNG,stimuli/bead_y.PNG,stimuli/bead_y.PNG,stimuli/bead_y.PNG,1,2,up,,,,,,,,,,,,,,,,,,,,,,,,,,
,,,1A,path,2024-04-22_18h21.10.763,Fish Game,2023.1.3,MacIntel,59.17159763,pid,,,,286.3634,13,up,0.6054,,1,0,13,13,13,1,14,stimuli/bead_y.PNG,stimuli/bead_y.PNG,stimuli/bead_g.PNG,stimuli/bead_y.PNG,stimuli/bead_y.PNG,1,2,up,,,,,,,,,,,,,,,,,,,,,,,,,,
,,,1A,path,2024-04-22_18h21.10.763,Fish Game,2023.1.3,MacIntel,59.17159763,pid,,,,289.2952,14,up,0.4707,,1,0,14,14,14,1,15,stimuli/bead_b.PNG,stimuli/bead_y.PNG,stimuli/bead_y.PNG,stimuli/bead_g.PNG,stimuli/bead_y.PNG,1,2,up,,,,,,,,,,,,,,,,,,,,,,,,,,
,,,1A,path,2024-04-22_18h21.10.763,Fish Game,2023.1.3,MacIntel,59.17159763,pid,,,,,,,,,,,,,,,1,,,,,,,,,space,3.8517,,1,1condition/mainTrials1.xlsx,300.4515,0,right,0.0509,,1,0.5,301.5341,0,0,0,0,1,stimuli/bead_g.PNG,stimuli/blank.jpg,stimuli/blank.jpg,stimuli/blank.jpg,stimuli/blank.jpg,2,3,right
,,,1A,path,2024-04-22_18h21.10.763,Fish Game,2023.1.3,MacIntel,59.17159763,pid,,,,,,,,,,,,,,,2,,,,,,,,,,,,,,302.0348,1,up,0.1589,,0,1,303.7137,0,1,1,1,1,stimuli/bead_y.PNG,stimuli/bead_g.PNG,stimuli/blank.jpg,stimuli/blank.jpg,stimuli/blank.jpg,2,3,right
,,,1A,path,2024-04-22_18h21.10.763,Fish Game,2023.1.3,MacIntel,59.17159763,pid,,,,,,,,,,,,,,,3,,,,,,,,,,,,,,304.2142,2,up,0.3865,,0,0.5,305.6291,0,2,2,2,1,stimuli/bead_g.PNG,stimuli/bead_y.PNG,stimuli/bead_g.PNG,stimuli/blank.jpg,stimuli/blank.jpg,2,3,right
,,,1A,path,2024-04-22_18h21.10.763,Fish Game,2023.1.3,MacIntel,59.17159763,pid,,,,,,,,,,,,,,,4,,,,,,,,,,,,,,306.1314,3,up,0.0346,,0,0.5,307.1956,0,3,3,3,1,stimuli/bead_b.PNG,stimuli/bead_g.PNG,stimuli/bead_y.PNG,stimuli/bead_g.PNG,stimuli/blank.jpg,2,3,right
,,,1A,path,2024-04-22_18h21.10.763,Fish Game,2023.1.3,MacIntel,59.17159763,pid,,,,,,,,,,,,,,,5,,,,,,,,,,,,,,307.6952,4,up,0.0031,,0,0.5,308.7258,0,4,4,4,1,stimuli/bead_g.PNG,stimuli/bead_b.PNG,stimuli/bead_g.PNG,stimuli/bead_y.PNG,stimuli/bead_g.PNG,2,3,right
,,,1A,path,2024-04-22_18h21.10.763,Fish Game,2023.1.3,MacIntel,59.17159763,pid,,,,,,,,,,,,,,,6,,,,,,,,,,,,,,309.2255,5,right,0.1507,,1,0.5,310.407,0,5,5,5,1,stimuli/bead_g.PNG,stimuli/bead_g.PNG,stimuli/bead_b.PNG,stimuli/bead_g.PNG,stimuli/bead_y.PNG,2,3,right
,,,1A,path,2024-04-22_18h21.10.763,Fish Game,2023.1.3,MacIntel,59.17159763,pid,,,,,,,,,,,,,,,7,,,,,,,,,,,,,,310.907,6,right,0.1178,,1,0.5,312.0569,0,6,6,6,1,stimuli/bead_g.PNG,stimuli/bead_g.PNG,stimuli/bead_g.PNG,stimuli/bead_b.PNG,stimuli/bead_g.PNG,2,3,right
,,,1A,path,2024-04-22_18h21.10.763,Fish Game,2023.1.3,MacIntel,59.17159763,pid,,,,,,,,,,,,,,,8,,,,,,,,,,,,,,312.5562,7,right,0.0591,,1,1,314.1376,0,7,7,7,1,stimuli/bead_g.PNG,stimuli/bead_g.PNG,stimuli/bead_g.PNG,stimuli/bead_g.PNG,stimuli/bead_b.PNG,2,3,right
,,,1A,path,2024-04-22_18h21.10.763,Fish Game,2023.1.3,MacIntel,59.17159763,pid,,,,,,,,,,,,,,,9,,,,,,,,,,,,,,314.6366,8,left,0.3026,,0,0.5,315.9684,0,8,8,8,1,stimuli/bead_b.PNG,stimuli/bead_g.PNG,stimuli/bead_g.PNG,stimuli/bead_g.PNG,stimuli/bead_g.PNG,2,3,right
,,,1A,path,2024-04-22_18h21.10.763,Fish Game,2023.1.3,MacIntel,59.17159763,pid,,,,,,,,,,,,,,,10,,,,,,,,,,,,,,316.4689,9,right,0.3259,,1,1,318.3173,0,9,9,9,1,stimuli/bead_g.PNG,stimuli/bead_b.PNG,stimuli/bead_g.PNG,stimuli/bead_g.PNG,stimuli/bead_g.PNG,2,3,right
,,,1A,path,2024-04-22_18h21.10.763,Fish Game,2023.1.3,MacIntel,59.17159763,pid,,,,,,,,,,,,,,,11,,,,,,,,,,,,,,318.8059,10,right,0.276,,1,0.5,320.0983,0,10,10,10,1,stimuli/bead_g.PNG,stimuli/bead_g.PNG,stimuli/bead_b.PNG,stimuli/bead_g.PNG,stimuli/bead_g.PNG,2,3,right
,,,1A,path,2024-04-22_18h21.10.763,Fish Game,2023.1.3,MacIntel,59.17159763,pid,,,,,,,,,,,,,,,12,,,,,,,,,,,,,,320.5986,11,right,0.3349,,1,1,322.4635,0,11,11,11,1,stimuli/bead_g.PNG,stimuli/bead_g.PNG,stimuli/bead_g.PNG,stimuli/bead_b.PNG,stimuli/bead_g.PNG,2,3,right
,,,1A,path,2024-04-22_18h21.10.763,Fish Game,2023.1.3,MacIntel,59.17159763,pid,,,,,,,,,,,,,,,13,,,,,,,,,,,,,,322.9655,12,up,0.0686,,0,0.5,324.0626,0,12,12,12,1,stimuli/bead_b.PNG,stimuli/bead_g.PNG,stimuli/bead_g.PNG,stimuli/bead_g.PNG,stimuli/bead_b.PNG,0,1,left
,,,1A,path,2024-04-22_18h21.10.763,Fish Game,2023.1.3,MacIntel,59.17159763,pid,,,,,,,,,,,,,,,14,,,,,,,,,,,,,,324.5619,13,left,0.1984,,1,1.5,326.7919,0,13,13,13,1,stimuli/bead_b.PNG,stimuli/bead_b.PNG,stimuli/bead_g.PNG,stimuli/bead_g.PNG,stimuli/bead_g.PNG,0,1,left
,,,1A,path,2024-04-22_18h21.10.763,Fish Game,2023.1.3,MacIntel,59.17159763,pid,,,,,,,,,,,,,,,15,,,,,,,,,,,,,,327.292,14,left,0.1461,,1,0.5,328.4744,0,14,14,14,1,stimuli/bead_b.PNG,stimuli/bead_b.PNG,stimuli/bead_b.PNG,stimuli/bead_g.PNG,stimuli/bead_g.PNG,0,1,left
,,,1A,path,2024-04-22_18h21.10.763,Fish Game,2023.1.3,MacIntel,59.17159763,pid,,,,,,,,,,,,,,,1,,,,,,,,,,,,2,1condition/mainTrials2.xlsx,333.9882,0,up,0.1408,,1,1,335.65,0,0,0,0,1,stimuli/bead_y.PNG,stimuli/blank.jpg,stimuli/blank.jpg,stimuli/blank.jpg,stimuli/blank.jpg,1,2,up
,,,1A,path,2024-04-22_18h21.10.763,Fish Game,2023.1.3,MacIntel,59.17159763,pid,,,,,,,,,,,,,,,2,,,,,,,,,,,,,,336.1507,1,up,0.0668,,1,1.5,338.2489,0,1,1,1,1,stimuli/bead_b.PNG,stimuli/bead_y.PNG,stimuli/blank.jpg,stimuli/blank.jpg,stimuli/blank.jpg,1,2,up
,,,1A,path,2024-04-22_18h21.10.763,Fish Game,2023.1.3,MacIntel,59.17159763,pid,,,,,,,,,,,,,,,3,,,,,,,,,,,,,,338.7477,2,up,0.6685,,1,1,340.9456,0,2,2,2,1,stimuli/bead_y.PNG,stimuli/bead_b.PNG,stimuli/bead_y.PNG,stimuli/blank.jpg,stimuli/blank.jpg,1,2,up
,,,1A,path,2024-04-22_18h21.10.763,Fish Game,2023.1.3,MacIntel,59.17159763,pid,,,,,,,,,,,,,,,4,,,,,,,,,,,,,,341.4475,3,up,0.4026,,1,1.5,343.8763,0,3,3,3,1,stimuli/bead_y.PNG,stimuli/bead_y.PNG,stimuli/bead_b.PNG,stimuli/bead_y.PNG,stimuli/blank.jpg,1,2,up
,,,1A,path,2024-04-22_18h21.10.763,Fish Game,2023.1.3,MacIntel,59.17159763,pid,,,,,,,,,,,,,,,5,,,,,,,,,,,,,,344.3753,4,up,0.0394,,1,1,345.9411,0,4,4,4,1,stimuli/bead_g.PNG,stimuli/bead_y.PNG,stimuli/bead_y.PNG,stimuli/bead_b.PNG,stimuli/bead_y.PNG,1,2,up
,,,1A,path,2024-04-22_18h21.10.763,Fish Game,2023.1.3,MacIntel,59.17159763,pid,,,,,,,,,,,,,,,6,,,,,,,,,,,,,,346.4405,5,right,0.05,,0,1,348.0225,0,5,5,5,1,stimuli/bead_y.PNG,stimuli/bead_g.PNG,stimuli/bead_y.PNG,stimuli/bead_y.PNG,stimuli/bead_b.PNG,1,2,up
,,,1A,path,2024-04-22_18h21.10.763,Fish Game,2023.1.3,MacIntel,59.17159763,pid,,,,,,,,,,,,,,,7,,,,,,,,,,,,,,348.5225,6,,,,,1,348.0225,0,6,6,6,1,stimuli/bead_b.PNG,stimuli/bead_y.PNG,stimuli/bead_g.PNG,stimuli/bead_y.PNG,stimuli/bead_y.PNG,0,1,left
,,,1A,path,2024-04-22_18h21.10.763,Fish Game,2023.1.3,MacIntel,59.17159763,pid,,,,,,,,,,,,,,,8,,,,,,,,,,,,,,353.7382,7,,,,,1,348.0225,0,7,7,7,1,stimuli/bead_b.PNG,stimuli/bead_b.PNG,stimuli/bead_y.PNG,stimuli/bead_g.PNG,stimuli/bead_y.PNG,0,1,left
,,,1A,path,2024-04-22_18h21.10.763,Fish Game,2023.1.3,MacIntel,59.17159763,pid,,,,,,,,,,,,,,,9,,,,,,,,,,,,,,358.9476,8,right,1.7486,,0,0.5,361.7271,0,8,8,8,1,stimuli/bead_y.PNG,stimuli/bead_b.PNG,stimuli/bead_b.PNG,stimuli/bead_y.PNG,stimuli/bead_g.PNG,0,1,left
,,,1A,path,2024-04-22_18h21.10.763,Fish Game,2023.1.3,MacIntel,59.17159763,pid,,,,,,,,,,,,,,,10,,,,,,,,,,,,,,362.2277,9,up,0.2268,,0,0.5,363.4912,0,9,9,9,1,stimuli/bead_b.PNG,stimuli/bead_y.PNG,stimuli/bead_b.PNG,stimuli/bead_b.PNG,stimuli/bead_y.PNG,0,1,left
,,,1A,path,2024-04-22_18h21.10.763,Fish Game,2023.1.3,MacIntel,59.17159763,pid,,,,,,,,,,,,,,,11,,,,,,,,,,,,,,363.9917,10,left,0.29,,1,1,365.8051,0,10,10,10,1,stimuli/bead_b.PNG,stimuli/bead_b.PNG,stimuli/bead_y.PNG,stimuli/bead_b.PNG,stimuli/bead_b.PNG,0,1,left
,,,1A,path,2024-04-22_18h21.10.763,Fish Game,2023.1.3,MacIntel,59.17159763,pid,,,,,,,,,,,,,,,12,,,,,,,,,,,,,,366.3054,11,left,2.4177,,1,1.5,370.7501,0,11,11,11,1,stimuli/bead_b.PNG,stimuli/bead_b.PNG,stimuli/bead_b.PNG,stimuli/bead_y.PNG,stimuli/bead_b.PNG,0,1,left
,,,1A,path,2024-04-22_18h21.10.763,Fish Game,2023.1.3,MacIntel,59.17159763,pid,,,,,,,,,,,,,,,13,,,,,,,,,,,,,,371.251,12,left,0.0364,,1,0.5,372.316,0,12,12,12,1,stimuli/bead_g.PNG,stimuli/bead_b.PNG,stimuli/bead_b.PNG,stimuli/bead_b.PNG,stimuli/bead_y.PNG,0,1,left
,,,1A,path,2024-04-22_18h21.10.763,Fish Game,2023.1.3,MacIntel,59.17159763,pid,,,,,,,,,,,,,,,14,,,,,,,,,,,,,,372.8174,13,left,0.2003,,1,0.5,374.047,0,13,13,13,1,stimuli/bead_b.PNG,stimuli/bead_g.PNG,stimuli/bead_b.PNG,stimuli/bead_b.PNG,stimuli/bead_b.PNG,0,1,left
,,,1A,path,2024-04-22_18h21.10.763,Fish Game,2023.1.3,MacIntel,59.17159763,pid,,,,,,,,,,,,,,,15,,,,,,,,,,,,,,374.5476,14,left,0.3665,,1,0.5,375.9451,0,14,14,14,1,stimuli/bead_b.PNG,stimuli/bead_b.PNG,stimuli/bead_g.PNG,stimuli/bead_b.PNG,stimuli/bead_b.PNG,0,1,left
,,,1A,path,2024-04-22_18h21.10.763,Fish Game,2023.1.3,MacIntel,59.17159763,pid,,,,,,,,,,,,,,,1,,,,,,,,,,,,3,1condition/mainTrials3.xlsx,381.4629,0,up,0.0658,,1,1.5,383.5547,0,0,0,0,1,stimuli/bead_y.PNG,stimuli/blank.jpg,stimuli/blank.jpg,stimuli/blank.jpg,stimuli/blank.jpg,1,2,up
,,,1A,path,2024-04-22_18h21.10.763,Fish Game,2023.1.3,MacIntel,59.17159763,pid,,,,,,,,,,,,,,,2,,,,,,,,,,,,,,384.0552,1,up,0.3317,,1,1,385.9199,0,1,1,1,1,stimuli/bead_y.PNG,stimuli/bead_y.PNG,stimuli/blank.jpg,stimuli/blank.jpg,stimuli/blank.jpg,1,2,up
,,,1A,path,2024-04-22_18h21.10.763,Fish Game,2023.1.3,MacIntel,59.17159763,pid,,,,,,,,,,,,,,,3,,,,,,,,,,,,,,386.4209,2,up,0.1066,,1,0.5,387.5513,0,2,2,2,1,stimuli/bead_b.PNG,stimuli/bead_y.PNG,stimuli/bead_y.PNG,stimuli/blank.jpg,stimuli/blank.jpg,1,2,up
,,,1A,path,2024-04-22_18h21.10.763,Fish Game,2023.1.3,MacIntel,59.17159763,pid,,,,,,,,,,,,,,,4,,,,,,,,,,,,,,388.0522,3,up,0.2172,,1,0.5,389.3006,0,3,3,3,1,stimuli/bead_y.PNG,stimuli/bead_b.PNG,stimuli/bead_y.PNG,stimuli/bead_y.PNG,stimuli/blank.jpg,1,2,up
,,,1A,path,2024-04-22_18h21.10.763,Fish Game,2023.1.3,MacIntel,59.17159763,pid,,,,,,,,,,,,,,,5,,,,,,,,,,,,,,389.8007,4,up,0.0497,,1,1,391.3818,0,4,4,4,1,stimuli/bead_y.PNG,stimuli/bead_y.PNG,stimuli/bead_b.PNG,stimuli/bead_y.PNG,stimuli/bead_y.PNG,1,2,up
,,,1A,path,2024-04-22_18h21.10.763,Fish Game,2023.1.3,MacIntel,59.17159763,pid,,,,,,,,,,,,,,,6,,,,,,,,,,,,,,391.8809,5,up,0.0496,,1,1.5,393.9454,0,5,5,5,1,stimuli/bead_y.PNG,stimuli/bead_y.PNG,stimuli/bead_y.PNG,stimuli/bead_b.PNG,stimuli/bead_y.PNG,1,2,up
,,,1A,path,2024-04-22_18h21.10.763,Fish Game,2023.1.3,MacIntel,59.17159763,pid,,,,,,,,,,,,,,,7,,,,,,,,,,,,,,394.4467,6,up,0.2682,,1,0.5,395.7456,0,6,6,6,1,stimuli/bead_b.PNG,stimuli/bead_y.PNG,stimuli/bead_y.PNG,stimuli/bead_y.PNG,stimuli/bead_b.PNG,1,2,up
,,,1A,path,2024-04-22_18h21.10.763,Fish Game,2023.1.3,MacIntel,59.17159763,pid,,,,,,,,,,,,,,,8,,,,,,,,,,,,,,396.2448,7,up,0.1288,,1,1,397.9097,0,7,7,7,1,stimuli/bead_y.PNG,stimuli/bead_b.PNG,stimuli/bead_y.PNG,stimuli/bead_y.PNG,stimuli/bead_y.PNG,1,2,up
,,,1A,path,2024-04-22_18h21.10.763,Fish Game,2023.1.3,MacIntel,59.17159763,pid,,,,,,,,,,,,,,,9,,,,,,,,,,,,,,398.4077,8,up,0.0054,,1,1,399.9439,0,8,8,8,1,stimuli/bead_y.PNG,stimuli/bead_y.PNG,stimuli/bead_b.PNG,stimuli/bead_y.PNG,stimuli/bead_y.PNG,1,2,up
,,,1A,path,2024-04-22_18h21.10.763,Fish Game,2023.1.3,MacIntel,59.17159763,pid,,,,,,,,,,,,,,,10,,,,,,,,,,,,,,400.4406,9,right,0.3428,,0,1.5,402.8037,0,9,9,9,1,stimuli/bead_g.PNG,stimuli/bead_y.PNG,stimuli/bead_y.PNG,stimuli/bead_b.PNG,stimuli/bead_y.PNG,1,2,up
,,,1A,path,2024-04-22_18h21.10.763,Fish Game,2023.1.3,MacIntel,59.17159763,pid,,,,,,,,,,,,,,,11,,,,,,,,,,,,,,403.3037,10,right,0.2007,,0,0.5,404.5351,0,10,10,10,1,stimuli/bead_y.PNG,stimuli/bead_g.PNG,stimuli/bead_y.PNG,stimuli/bead_y.PNG,stimuli/bead_b.PNG,1,2,up
,,,1A,path,2024-04-22_18h21.10.763,Fish Game,2023.1.3,MacIntel,59.17159763,pid,,,,,,,,,,,,,,,12,,,,,,,,,,,,,,405.0345,11,right,0.2392,,0,0.5,406.2998,0,11,11,11,1,stimuli/bead_g.PNG,stimuli/bead_y.PNG,stimuli/bead_g.PNG,stimuli/bead_y.PNG,stimuli/bead_y.PNG,1,2,up
,,,1A,path,2024-04-22_18h21.10.763,Fish Game,2023.1.3,MacIntel,59.17159763,pid,,,,,,,,,,,,,,,13,,,,,,,,,,,,,,406.8005,12,right,0.3013,,0,1,408.6314,0,12,12,12,1,stimuli/bead_y.PNG,stimuli/bead_g.PNG,stimuli/bead_y.PNG,stimuli/bead_g.PNG,stimuli/bead_y.PNG,1,2,up
,,,1A,path,2024-04-22_18h21.10.763,Fish Game,2023.1.3,MacIntel,59.17159763,pid,,,,,,,,,,,,,,,14,,,,,,,,,,,,,,409.1316,13,up,0.1244,,1,0.5,410.2971,0,13,13,13,1,stimuli/bead_y.PNG,stimuli/bead_y.PNG,stimuli/bead_g.PNG,stimuli/bead_y.PNG,stimuli/bead_g.PNG,1,2,up
,,,1A,path,2024-04-22_18h21.10.763,Fish Game,2023.1.3,MacIntel,59.17159763,pid,,,,,,,,,,,,,,,15,,,,,,,,,,,,,,410.7976,14,up,0.0004,,1,1.5,412.8287,0,14,14,14,1,stimuli/bead_y.PNG,stimuli/bead_y.PNG,stimuli/bead_y.PNG,stimuli/bead_g.PNG,stimuli/bead_y.PNG,1,2,up
,,,1A,path,2024-04-22_18h21.10.763,Fish Game,2023.1.3,MacIntel,59.17159763,pid,,,,,,,,,,,,,,,1,,,,,,,,,,,,4,1condition/mainTrials4.xlsx,418.3548,0,right,0.1229,,1,0.5,419.4875,0,0,0,0,1,stimuli/bead_g.PNG,stimuli/blank.jpg,stimuli/blank.jpg,stimuli/blank.jpg,stimuli/blank.jpg,2,3,right
,,,1A,path,2024-04-22_18h21.10.763,Fish Game,2023.1.3,MacIntel,59.17159763,pid,,,,,,,,,,,,,,,2,,,,,,,,,,,,,,419.9874,1,right,0.3828,,1,1,421.9033,0,1,1,1,1,stimuli/bead_g.PNG,stimuli/bead_g.PNG,stimuli/blank.jpg,stimuli/blank.jpg,stimuli/blank.jpg,2,3,right
,,,1A,path,2024-04-22_18h21.10.763,Fish Game,2023.1.3,MacIntel,59.17159763,pid,,,,,,,,,,,,,,,3,,,,,,,,,,,,,,422.4029,2,right,0.1351,,1,1.5,424.5659,0,2,2,2,1,stimuli/bead_b.PNG,stimuli/bead_g.PNG,stimuli/bead_g.PNG,stimuli/blank.jpg,stimuli/blank.jpg,2,3,right
,,,1A,path,2024-04-22_18h21.10.763,Fish Game,2023.1.3,MacIntel,59.17159763,pid,,,,,,,,,,,,,,,4,,,,,,,,,,,,,,425.0661,3,right,0.4169,,1,1,427.014,0,3,3,3,1,stimuli/bead_g.PNG,stimuli/bead_b.PNG,stimuli/bead_g.PNG,stimuli/bead_g.PNG,stimuli/blank.jpg,2,3,right
,,,1A,path,2024-04-22_18h21.10.763,Fish Game,2023.1.3,MacIntel,59.17159763,pid,,,,,,,,,,,,,,,5,,,,,,,,,,,,,,427.5142,4,right,2.3294,,1,1.5,431.8765,0,4,4,4,1,stimuli/bead_g.PNG,stimuli/bead_g.PNG,stimuli/bead_b.PNG,stimuli/bead_g.PNG,stimuli/bead_g.PNG,2,3,right
,,,1A,path,2024-04-22_18h21.10.763,Fish Game,2023.1.3,MacIntel,59.17159763,pid,,,,,,,,,,,,,,,6,,,,,,,,,,,,,,432.3795,5,up,0.3935,,0,1,434.29,0,5,5,5,1,stimuli/bead_y.PNG,stimuli/bead_g.PNG,stimuli/bead_g.PNG,stimuli/bead_b.PNG,stimuli/bead_g.PNG,2,3,right
,,,1A,path,2024-04-22_18h21.10.763,Fish Game,2023.1.3,MacIntel,59.17159763,pid,,,,,,,,,,,,,,,7,,,,,,,,,,,,,,434.7906,6,up,0.0685,,0,1.5,436.888,0,6,6,6,1,stimuli/bead_g.PNG,stimuli/bead_y.PNG,stimuli/bead_g.PNG,stimuli/bead_g.PNG,stimuli/bead_b.PNG,2,3,right
,,,1A,path,2024-04-22_18h21.10.763,Fish Game,2023.1.3,MacIntel,59.17159763,pid,,,,,,,,,,,,,,,8,,,,,,,,,,,,,,437.388,7,right,2.0646,,0,0.5,440.4845,0,7,7,7,1,stimuli/bead_y.PNG,stimuli/bead_g.PNG,stimuli/bead_y.PNG,stimuli/bead_g.PNG,stimuli/bead_g.PNG,1,2,up
,,,1A,path,2024-04-22_18h21.10.763,Fish Game,2023.1.3,MacIntel,59.17159763,pid,,,,,,,,,,,,,,,9,,,,,,,,,,,,,,440.985,8,up,0.1556,,1,1,442.6657,0,8,8,8,1,stimuli/bead_y.PNG,stimuli/bead_y.PNG,stimuli/bead_g.PNG,stimuli/bead_y.PNG,stimuli/bead_g.PNG,1,2,up
,,,1A,path,2024-04-22_18h21.10.763,Fish Game,2023.1.3,MacIntel,59.17159763,pid,,,,,,,,,,,,,,,10,,,,,,,,,,,,,,443.1672,9,up,0.058,,1,1.5,445.2473,0,9,9,9,1,stimuli/bead_g.PNG,stimuli/bead_y.PNG,stimuli/bead_y.PNG,stimuli/bead_g.PNG,stimuli/bead_y.PNG,1,2,up
,,,1A,path,2024-04-22_18h21.10.763,Fish Game,2023.1.3,MacIntel,59.17159763,pid,,,,,,,,,,,,,,,11,,,,,,,,,,,,,,445.7473,10,up,0.1395,,1,1.5,447.8964,0,10,10,10,1,stimuli/bead_y.PNG,stimuli/bead_g.PNG,stimuli/bead_y.PNG,stimuli/bead_y.PNG,stimuli/bead_g.PNG,1,2,up
,,,1A,path,2024-04-22_18h21.10.763,Fish Game,2023.1.3,MacIntel,59.17159763,pid,,,,,,,,,,,,,,,12,,,,,,,,,,,,,,448.3968,11,up,0.3508,,1,1,450.2765,0,11,11,11,1,stimuli/bead_y.PNG,stimuli/bead_y.PNG,stimuli/bead_g.PNG,stimuli/bead_y.PNG,stimuli/bead_y.PNG,1,2,up
,,,1A,path,2024-04-22_18h21.10.763,Fish Game,2023.1.3,MacIntel,59.17159763,pid,,,,,,,,,,,,,,,13,,,,,,,,,,,,,,450.7762,12,up,0.0022,,1,0.5,451.8071,0,12,12,12,1,stimuli/bead_b.PNG,stimuli/bead_y.PNG,stimuli/bead_y.PNG,stimuli/bead_g.PNG,stimuli/bead_y.PNG,1,2,up
,,,1A,path,2024-04-22_18h21.10.763,Fish Game,2023.1.3,MacIntel,59.17159763,pid,,,,,,,,,,,,,,,14,,,,,,,,,,,,,,452.3095,13,up,0.0507,,1,1,453.8884,0,13,13,13,1,stimuli/bead_y.PNG,stimuli/bead_b.PNG,stimuli/bead_y.PNG,stimuli/bead_y.PNG,stimuli/bead_g.PNG,1,2,up
,,,1A,path,2024-04-22_18h21.10.763,Fish Game,2023.1.3,MacIntel,59.17159763,pid,,,,,,,,,,,,,,,15,,,,,,,,,,,,,,454.3901,14,up,1.5727,,1,1.5,457.9849,0,14,14,14,1,stimuli/bead_y.PNG,stimuli/bead_y.PNG,stimuli/bead_b.PNG,stimuli/bead_y.PNG,stimuli/bead_y.PNG,1,2,up
,,,1A,path,2024-04-22_18h21.10.763,Fish Game,2023.1.3,MacIntel,59.17159763,pid,,,,,,,,,,,,,,,1,,,,,,,,,,,,5,1condition/mainTrials5.xlsx,463.4961,0,up,0.1546,,0,1.5,465.6788,0,0,0,0,1,stimuli/bead_b.PNG,stimuli/blank.jpg,stimuli/blank.jpg,stimuli/blank.jpg,stimuli/blank.jpg,0,1,left
,,,1A,path,2024-04-22_18h21.10.763,Fish Game,2023.1.3,MacIntel,59.17159763,pid,,,,,,,,,,,,,,,2,,,,,,,,,,,,,,466.179,1,up,0.0557,,0,1.5,468.2583,0,1,1,1,1,stimuli/bead_b.PNG,stimuli/bead_b.PNG,stimuli/blank.jpg,stimuli/blank.jpg,stimuli/blank.jpg,0,1,left
,,,1A,path,2024-04-22_18h21.10.763,Fish Game,2023.1.3,MacIntel,59.17159763,pid,,,,,,,,,,,,,,,3,,,,,,,,,,,,,,468.7585,2,left,0.1541,,1,1.5,470.9393,0,2,2,2,1,stimuli/bead_y.PNG,stimuli/bead_b.PNG,stimuli/bead_b.PNG,stimuli/blank.jpg,stimuli/blank.jpg,0,1,left
,,,1A,path,2024-04-22_18h21.10.763,Fish Game,2023.1.3,MacIntel,59.17159763,pid,,,,,,,,,,,,,,,4,,,,,,,,,,,,,,471.4401,3,left,1.3509,,1,1,474.319,0,3,3,3,1,stimuli/bead_b.PNG,stimuli/bead_y.PNG,stimuli/bead_b.PNG,stimuli/bead_b.PNG,stimuli/blank.jpg,0,1,left
,,,1A,path,2024-04-22_18h21.10.763,Fish Game,2023.1.3,MacIntel,59.17159763,pid,,,,,,,,,,,,,,,5,,,,,,,,,,,,,,474.8211,4,left,0.0323,,1,0.5,475.8847,0,4,4,4,1,stimuli/bead_b.PNG,stimuli/bead_b.PNG,stimuli/bead_y.PNG,stimuli/bead_b.PNG,stimuli/bead_b.PNG,0,1,left
,,,1A,path,2024-04-22_18h21.10.763,Fish Game,2023.1.3,MacIntel,59.17159763,pid,,,,,,,,,,,,,,,6,,,,,,,,,,,,,,476.3856,5,left,0.0368,,0,0.5,477.4506,0,5,5,5,1,stimuli/bead_g.PNG,stimuli/bead_b.PNG,stimuli/bead_b.PNG,stimuli/bead_y.PNG,stimuli/bead_b.PNG,2,3,right
,,,1A,path,2024-04-22_18h21.10.763,Fish Game,2023.1.3,MacIntel,59.17159763,pid,,,,,,,,,,,,,,,7,,,,,,,,,,,,,,477.9517,6,left,0.0621,,0,0.5,479.0329,0,6,6,6,1,stimuli/bead_g.PNG,stimuli/bead_g.PNG,stimuli/bead_b.PNG,stimuli/bead_b.PNG,stimuli/bead_y.PNG,2,2,right
,,,1A,path,2024-04-22_18h21.10.763,Fish Game,2023.1.3,MacIntel,59.17159763,pid,,,,,,,,,,,,,,,8,,,,,,,,,,,,,,479.5315,7,right,0.0337,,1,1.5,481.5955,0,7,7,7,1,stimuli/bead_b.PNG,stimuli/bead_g.PNG,stimuli/bead_g.PNG,stimuli/bead_b.PNG,stimuli/bead_b.PNG,2,2,right
,,,1A,path,2024-04-22_18h21.10.763,Fish Game,2023.1.3,MacIntel,59.17159763,pid,,,,,,,,,,,,,,,9,,,,,,,,,,,,,,482.0968,8,right,0.1851,,1,1.5,484.31,0,8,8,8,1,stimuli/bead_g.PNG,stimuli/bead_b.PNG,stimuli/bead_g.PNG,stimuli/bead_g.PNG,stimuli/bead_b.PNG,2,2,right
,,,1A,path,2024-04-22_18h21.10.763,Fish Game,2023.1.3,MacIntel,59.17159763,pid,,,,,,,,,,,,,,,10,,,,,,,,,,,,,,484.8091,9,right,0.3883,,1,1,486.7251,0,9,9,9,1,stimuli/bead_b.PNG,stimuli/bead_g.PNG,stimuli/bead_b.PNG,stimuli/bead_g.PNG,stimuli/bead_g.PNG,2,2,right
,,,1A,path,2024-04-22_18h21.10.763,Fish Game,2023.1.3,MacIntel,59.17159763,pid,,,,,,,,,,,,,,,11,,,,,,,,,,,,,,487.2241,10,right,0.0663,,1,1.5,489.3229,0,10,10,10,1,stimuli/bead_g.PNG,stimuli/bead_b.PNG,stimuli/bead_g.PNG,stimuli/bead_b.PNG,stimuli/bead_g.PNG,2,2,right
,,,1A,path,2024-04-22_18h21.10.763,Fish Game,2023.1.3,MacIntel,59.17159763,pid,,,,,,,,,,,,,,,12,,,,,,,,,,,,,,489.8236,11,,,,,1.5,489.3229,0,11,11,11,1,stimuli/bead_g.PNG,stimuli/bead_g.PNG,stimuli/bead_b.PNG,stimuli/bead_g.PNG,stimuli/bead_b.PNG,2,2,right
,,,1A,path,2024-04-22_18h21.10.763,Fish Game,2023.1.3,MacIntel,59.17159763,pid,,,,,,,,,,,,,,,13,,,,,,,,,,,,,,495.0454,12,right,0.9822,,1,1,497.547,0,12,12,12,1,stimuli/bead_g.PNG,stimuli/bead_g.PNG,stimuli/bead_g.PNG,stimuli/bead_b.PNG,stimuli/bead_g.PNG,2,3,right
,,,1A,path,2024-04-22_18h21.10.763,Fish Game,2023.1.3,MacIntel,59.17159763,pid,,,,,,,,,,,,,,,14,,,,,,,,,,,,,,498.0382,13,right,0.3663,,1,1.5,500.4287,0,13,13,13,1,stimuli/bead_y.PNG,stimuli/bead_g.PNG,stimuli/bead_g.PNG,stimuli/bead_g.PNG,stimuli/bead_b.PNG,2,3,right
,,,1A,path,2024-04-22_18h21.10.763,Fish Game,2023.1.3,MacIntel,59.17159763,pid,,,,,,,,,,,,,,,15,,,,,,,,,,,,,,500.9316,14,right,0.4107,,1,1.5,503.3752,0,14,14,14,1,stimuli/bead_g.PNG,stimuli/bead_y.PNG,stimuli/bead_g.PNG,stimuli/bead_g.PNG,stimuli/bead_g.PNG,2,3,right
,,,1A,path,2024-04-22_18h21.10.763,Fish Game,2023.1.3,MacIntel,59.17159763,pid,,,,,,,,,,,,,,,1,,,,,,,,,,,,6,1condition/mainTrials6.xlsx,508.8915,0,left,0.4848,,0,1.5,511.4006,0,0,0,0,1,stimuli/bead_b.PNG,stimuli/blank.jpg,stimuli/blank.jpg,stimuli/blank.jpg,stimuli/blank.jpg,1,2,up
,,,1A,path,2024-04-22_18h21.10.763,Fish Game,2023.1.3,MacIntel,59.17159763,pid,,,,,,,,,,,,,,,2,,,,,,,,,,,,,,511.9021,1,up,0.3043,,1,0.5,513.2331,0,1,1,1,1,stimuli/bead_y.PNG,stimuli/bead_b.PNG,stimuli/blank.jpg,stimuli/blank.jpg,stimuli/blank.jpg,1,2,up
,,,1A,path,2024-04-22_18h21.10.763,Fish Game,2023.1.3,MacIntel,59.17159763,pid,,,,,,,,,,,,,,,3,,,,,,,,,,,,,,513.7339,2,up,0.3749,,1,1.5,516.1299,0,2,2,2,1,stimuli/bead_y.PNG,stimuli/bead_y.PNG,stimuli/bead_b.PNG,stimuli/blank.jpg,stimuli/blank.jpg,1,2,up
,,,1A,path,2024-04-22_18h21.10.763,Fish Game,2023.1.3,MacIntel,59.17159763,pid,,,,,,,,,,,,,,,4,,,,,,,,,,,,,,516.6316,3,up,0.2215,,1,1.5,518.877,0,3,3,3,1,stimuli/bead_y.PNG,stimuli/bead_y.PNG,stimuli/bead_y.PNG,stimuli/bead_b.PNG,stimuli/blank.jpg,1,2,up
,,,1A,path,2024-04-22_18h21.10.763,Fish Game,2023.1.3,MacIntel,59.17159763,pid,,,,,,,,,,,,,,,5,,,,,,,,,,,,,,519.3813,4,up,0.2363,,0,0.5,520.6427,0,4,4,4,1,stimuli/bead_g.PNG,stimuli/bead_y.PNG,stimuli/bead_y.PNG,stimuli/bead_y.PNG,stimuli/bead_b.PNG,2,3,right
,,,1A,path,2024-04-22_18h21.10.763,Fish Game,2023.1.3,MacIntel,59.17159763,pid,,,,,,,,,,,,,,,6,,,,,,,,,,,,,,521.1437,5,right,0.1994,,1,1.5,523.3796,0,5,5,5,1,stimuli/bead_g.PNG,stimuli/bead_g.PNG,stimuli/bead_y.PNG,stimuli/bead_y.PNG,stimuli/bead_y.PNG,2,3,right
,,,1A,path,2024-04-22_18h21.10.763,Fish Game,2023.1.3,MacIntel,59.17159763,pid,,,,,,,,,,,,,,,7,,,,,,,,,,,,,,523.8732,6,right,0.107,,1,1.5,526.0043,0,6,6,6,1,stimuli/bead_y.PNG,stimuli/bead_g.PNG,stimuli/bead_g.PNG,stimuli/bead_y.PNG,stimuli/bead_y.PNG,2,3,right
,,,1A,path,2024-04-22_18h21.10.763,Fish Game,2023.1.3,MacIntel,59.17159763,pid,,,,,,,,,,,,,,,8,,,,,,,,,,,,,,526.5033,7,right,0.5985,,1,1.5,529.1337,0,7,7,7,1,stimuli/bead_g.PNG,stimuli/bead_y.PNG,stimuli/bead_g.PNG,stimuli/bead_g.PNG,stimuli/bead_y.PNG,2,3,right
,,,1A,path,2024-04-22_18h21.10.763,Fish Game,2023.1.3,MacIntel,59.17159763,pid,,,,,,,,,,,,,,,9,,,,,,,,,,,,,,529.6356,8,right,0.0007,,1,0.5,530.667,0,8,8,8,1,stimuli/bead_g.PNG,stimuli/bead_g.PNG,stimuli/bead_y.PNG,stimuli/bead_g.PNG,stimuli/bead_g.PNG,2,3,right
,,,1A,path,2024-04-22_18h21.10.763,Fish Game,2023.1.3,MacIntel,59.17159763,pid,,,,,,,,,,,,,,,10,,,,,,,,,,,,,,531.1658,9,right,0.0058,,1,1,532.6986,0,9,9,9,1,stimuli/bead_g.PNG,stimuli/bead_g.PNG,stimuli/bead_g.PNG,stimuli/bead_y.PNG,stimuli/bead_g.PNG,2,3,right
,,,1A,path,2024-04-22_18h21.10.763,Fish Game,2023.1.3,MacIntel,59.17159763,pid,,,,,,,,,,,,,,,11,,,,,,,,,,,,,,533.1978,10,right,1.619,,0,0.5,535.8443,0,10,10,10,1,stimuli/bead_y.PNG,stimuli/bead_g.PNG,stimuli/bead_g.PNG,stimuli/bead_g.PNG,stimuli/bead_y.PNG,1,2,up
,,,1A,path,2024-04-22_18h21.10.763,Fish Game,2023.1.3,MacIntel,59.17159763,pid,,,,,,,,,,,,,,,12,,,,,,,,,,,,,,536.3455,11,up,2.4609,,1,1,540.3401,0,11,11,11,1,stimuli/bead_b.PNG,stimuli/bead_y.PNG,stimuli/bead_g.PNG,stimuli/bead_g.PNG,stimuli/bead_g.PNG,1,2,up
,,,1A,path,2024-04-22_18h21.10.763,Fish Game,2023.1.3,MacIntel,59.17159763,pid,,,,,,,,,,,,,,,13,,,,,,,,,,,,,,540.8407,12,up,0.205,,1,0.5,542.0731,0,12,12,12,1,stimuli/bead_y.PNG,stimuli/bead_b.PNG,stimuli/bead_y.PNG,stimuli/bead_g.PNG,stimuli/bead_g.PNG,1,2,up
,,,1A,path,2024-04-22_18h21.10.763,Fish Game,2023.1.3,MacIntel,59.17159763,pid,,,,,,,,,,,,,,,14,,,,,,,,,,,,,,542.5715,13,up,0.9999,,1,1.5,545.6029,0,13,13,13,1,stimuli/bead_y.PNG,stimuli/bead_y.PNG,stimuli/bead_b.PNG,stimuli/bead_y.PNG,stimuli/bead_g.PNG,1,2,up
,,,1A,path,2024-04-22_18h21.10.763,Fish Game,2023.1.3,MacIntel,59.17159763,pid,,,,,,,,,,,,,,,15,,,,,,,,,,,,,,546.1042,14,up,0.1192,,1,0.5,547.2501,0,14,14,14,1,stimuli/bead_y.PNG,stimuli/bead_y.PNG,stimuli/bead_y.PNG,stimuli/bead_b.PNG,stimuli/bead_y.PNG,1,2,up
,,,1A,path,2024-04-22_18h21.10.763,Fish Game,2023.1.3,MacIntel,59.17159763,pid,,,,,,,,,,,,,,,1,,,,,,,,,,,,7,1condition/mainTrials7.xlsx,552.7689,0,up,1.7504,,1,1,556.0428,0,0,0,0,1,stimuli/bead_y.PNG,stimuli/blank.jpg,stimuli/blank.jpg,stimuli/blank.jpg,stimuli/blank.jpg,1,2,up
,,,1A,path,2024-04-22_18h21.10.763,Fish Game,2023.1.3,MacIntel,59.17159763,pid,,,,,,,,,,,,,,,2,,,,,,,,,,,,,,556.5424,1,up,0.036,,1,0.5,557.6071,0,1,1,1,1,stimuli/bead_y.PNG,stimuli/bead_y.PNG,stimuli/blank.jpg,stimuli/blank.jpg,stimuli/blank.jpg,1,2,up
,,,1A,path,2024-04-22_18h21.10.763,Fish Game,2023.1.3,MacIntel,59.17159763,pid,,,,,,,,,,,,,,,3,,,,,,,,,,,,,,558.1091,2,up,0.1842,,1,1,559.8231,0,2,2,2,1,stimuli/bead_g.PNG,stimuli/bead_y.PNG,stimuli/bead_y.PNG,stimuli/blank.jpg,stimuli/blank.jpg,1,2,up
,,,1A,path,2024-04-22_18h21.10.763,Fish Game,2023.1.3,MacIntel,59.17159763,pid,,,,,,,,,,,,,,,4,,,,,,,,,,,,,,560.3234,3,up,0.084,,1,1,561.9371,0,3,3,3,1,stimuli/bead_y.PNG,stimuli/bead_g.PNG,stimuli/bead_y.PNG,stimuli/bead_y.PNG,stimuli/blank.jpg,1,2,up
,,,1A,path,2024-04-22_18h21.10.763,Fish Game,2023.1.3,MacIntel,59.17159763,pid,,,,,,,,,,,,,,,5,,,,,,,,,,,,,,562.4376,4,up,2.8923,,1,1.5,567.3489,0,4,4,4,1,stimuli/bead_y.PNG,stimuli/bead_y.PNG,stimuli/bead_g.PNG,stimuli/bead_y.PNG,stimuli/bead_y.PNG,1,2,up
,,,1A,path,2024-04-22_18h21.10.763,Fish Game,2023.1.3,MacIntel,59.17159763,pid,,,,,,,,,,,,,,,6,,,,,,,,,,,,,,567.8479,5,up,1.0858,,1,1,570.4624,0,5,5,5,1,stimuli/bead_y.PNG,stimuli/bead_y.PNG,stimuli/bead_y.PNG,stimuli/bead_g.PNG,stimuli/bead_y.PNG,1,2,up
,,,1A,path,2024-04-22_18h21.10.763,Fish Game,2023.1.3,MacIntel,59.17159763,pid,,,,,,,,,,,,,,,7,,,,,,,,,,,,,,570.9637,6,,,,,1,570.4624,0,6,6,6,1,stimuli/bead_b.PNG,stimuli/bead_y.PNG,stimuli/bead_y.PNG,stimuli/bead_y.PNG,stimuli/bead_g.PNG,1,2,up
,,,1A,path,2024-04-22_18h21.10.763,Fish Game,2023.1.3,MacIntel,59.17159763,pid,,,,,,,,,,,,,,,8,,,,,,,,,,,,,,576.1949,7,up,0.0606,,1,1,577.7718,0,7,7,7,1,stimuli/bead_y.PNG,stimuli/bead_b.PNG,stimuli/bead_y.PNG,stimuli/bead_y.PNG,stimuli/bead_y.PNG,1,2,up
,,,1A,path,2024-04-22_18h21.10.763,Fish Game,2023.1.3,MacIntel,59.17159763,pid,,,,,,,,,,,,,,,9,,,,,,,,,,,,,,578.2729,8,,,,,0.5,577.7718,0,8,8,8,1,stimuli/bead_y.PNG,stimuli/bead_y.PNG,stimuli/bead_b.PNG,stimuli/bead_y.PNG,stimuli/bead_y.PNG,1,2,right
,,,1A,path,2024-04-22_18h21.10.763,Fish Game,2023.1.3,MacIntel,59.17159763,pid,,,,,,,,,,,,,,,10,,,,,,,,,,,,,,583.4954,9,,,,,1.5,577.7718,0,9,9,9,1,stimuli/bead_g.PNG,stimuli/bead_y.PNG,stimuli/bead_y.PNG,stimuli/bead_b.PNG,stimuli/bead_y.PNG,2,3,right
,,,1A,path,2024-04-22_18h21.10.763,Fish Game,2023.1.3,MacIntel,59.17159763,pid,,,,,,,,,,,,,,,11,,,,,,,,,,,,,,588.7163,10,up,1.7987,,0,1.5,592.5354,0,10,10,10,1,stimuli/bead_g.PNG,stimuli/bead_g.PNG,stimuli/bead_y.PNG,stimuli/bead_y.PNG,stimuli/bead_b.PNG,2,3,right
,,,1A,path,2024-04-22_18h21.10.763,Fish Game,2023.1.3,MacIntel,59.17159763,pid,,,,,,,,,,,,,,,12,,,,,,,,,,,,,,593.026,11,up,3.1388,,0,0.5,597.1874,0,11,11,11,1,stimuli/bead_y.PNG,stimuli/bead_g.PNG,stimuli/bead_g.PNG,stimuli/bead_y.PNG,stimuli/bead_y.PNG,2,3,right
,,,1A,path,2024-04-22_18h21.10.763,Fish Game,2023.1.3,MacIntel,59.17159763,pid,,,,,,,,,,,,,,,13,,,,,,,,,,,,,,597.6864,12,,,,,1,597.1874,0,12,12,12,1,stimuli/bead_g.PNG,stimuli/bead_y.PNG,stimuli/bead_g.PNG,stimuli/bead_g.PNG,stimuli/bead_y.PNG,2,3,right
,,,1A,path,2024-04-22_18h21.10.763,Fish Game,2023.1.3,MacIntel,59.17159763,pid,,,,,,,,,,,,,,,14,,,,,,,,,,,,,,602.9167,13,up,0.1687,,0,1,604.621,0,13,13,13,1,stimuli/bead_g.PNG,stimuli/bead_g.PNG,stimuli/bead_y.PNG,stimuli/bead_g.PNG,stimuli/bead_g.PNG,2,3,right
,,,1A,path,2024-04-22_18h21.10.763,Fish Game,2023.1.3,MacIntel,59.17159763,pid,,,,,,,,,,,,,,,15,,,,,,,,,,,,,,605.1145,14,,,,,1,604.621,0,14,14,14,1,stimuli/bead_g.PNG,stimuli/bead_g.PNG,stimuli/bead_g.PNG,stimuli/bead_y.PNG,stimuli/bead_g.PNG,2,3,right
,,,1A,path,2024-04-22_18h21.10.763,Fish Game,2023.1.3,MacIntel,59.17159763,pid,,,,,,,,,,,,,,,1,,,,,,,,,,,,8,1condition/mainTrials8.xlsx,615.3524,0,,,,,1,604.621,0,0,0,0,1,stimuli/bead_y.PNG,stimuli/blank.jpg,stimuli/blank.jpg,stimuli/blank.jpg,stimuli/blank.jpg,0,1,left
,,,1A,path,2024-04-22_18h21.10.763,Fish Game,2023.1.3,MacIntel,59.17159763,pid,,,,,,,,,,,,,,,2,,,,,,,,,,,,,,620.5666,1,,,,,0.5,604.621,0,1,1,1,1,stimuli/bead_b.PNG,stimuli/bead_y.PNG,stimuli/blank.jpg,stimuli/blank.jpg,stimuli/blank.jpg,0,1,left
,,,1A,path,2024-04-22_18h21.10.763,Fish Game,2023.1.3,MacIntel,59.17159763,pid,,,,,,,,,,,,,,,3,,,,,,,,,,,,,,625.7956,2,right,3.0019,,0,0.5,629.8222,0,2,2,2,1,stimuli/bead_g.PNG,stimuli/bead_b.PNG,stimuli/bead_y.PNG,stimuli/blank.jpg,stimuli/blank.jpg,0,1,left
,,,1A,path,2024-04-22_18h21.10.763,Fish Game,2023.1.3,MacIntel,59.17159763,pid,,,,,,,,,,,,,,,4,,,,,,,,,,,,,,630.3217,3,,,,,0.5,629.8222,0,3,3,3,1,stimuli/bead_b.PNG,stimuli/bead_g.PNG,stimuli/bead_b.PNG,stimuli/bead_y.PNG,stimuli/blank.jpg,0,1,left
,,,1A,path,2024-04-22_18h21.10.763,Fish Game,2023.1.3,MacIntel,59.17159763,pid,,,,,,,,,,,,,,,5,,,,,,,,,,,,,,635.5467,4,,,,,1.5,629.8222,0,4,4,4,1,stimuli/bead_b.PNG,stimuli/bead_b.PNG,stimuli/bead_g.PNG,stimuli/bead_b.PNG,stimuli/bead_y.PNG,0,1,left
,,,1A,path,2024-04-22_18h21.10.763,Fish Game,2023.1.3,MacIntel,59.17159763,pid,,,,,,,,,,,,,,,6,,,,,,,,,,,,,,640.762,5,,,,,1.5,629.8222,0,5,5,5,1,stimuli/bead_b.PNG,stimuli/bead_b.PNG,stimuli/bead_b.PNG,stimuli/bead_g.PNG,stimuli/bead_b.PNG,0,1,left
,,,1A,path,2024-04-22_18h21.10.763,Fish Game,2023.1.3,MacIntel,59.17159763,pid,,,,,,,,,,,,,,,7,,,,,,,,,,,,,,645.9862,6,,,,,0.5,629.8222,0,6,6,6,1,stimuli/bead_g.PNG,stimuli/bead_b.PNG,stimuli/bead_b.PNG,stimuli/bead_b.PNG,stimuli/bead_g.PNG,0,1,left
,,,1A,path,2024-04-22_18h21.10.763,Fish Game,2023.1.3,MacIntel,59.17159763,pid,,,,,,,,,,,,,,,8,,,,,,,,,,,,,,651.2056,7,,,,,1.5,629.8222,0,7,7,7,1,stimuli/bead_b.PNG,stimuli/bead_g.PNG,stimuli/bead_b.PNG,stimuli/bead_b.PNG,stimuli/bead_b.PNG,0,1,left
,,,1A,path,2024-04-22_18h21.10.763,Fish Game,2023.1.3,MacIntel,59.17159763,pid,,,,,,,,,,,,,,,9,,,,,,,,,,,,,,656.4364,8,,,,,1,629.8222,0,8,8,8,1,stimuli/bead_y.PNG,stimuli/bead_b.PNG,stimuli/bead_g.PNG,stimuli/bead_b.PNG,stimuli/bead_b.PNG,0,1,left
,,,1A,path,2024-04-22_18h21.10.763,Fish Game,2023.1.3,MacIntel,59.17159763,pid,,,,,,,,,,,,,,,10,,,,,,,,,,,,,,661.6622,9,,,,,1,629.8222,0,9,9,9,1,stimuli/bead_b.PNG,stimuli/bead_y.PNG,stimuli/bead_b.PNG,stimuli/bead_g.PNG,stimuli/bead_b.PNG,0,1,left
,,,1A,path,2024-04-22_18h21.10.763,Fish Game,2023.1.3,MacIntel,59.17159763,pid,,,,,,,,,,,,,,,11,,,,,,,,,,,,,,666.8901,10,,,,,1,629.8222,0,10,10,10,1,stimuli/bead_b.PNG,stimuli/bead_b.PNG,stimuli/bead_y.PNG,stimuli/bead_b.PNG,stimuli/bead_g.PNG,0,1,left
,,,1A,path,2024-04-22_18h21.10.763,Fish Game,2023.1.3,MacIntel,59.17159763,pid,,,,,,,,,,,,,,,12,,,,,,,,,,,,,,672.1148,11,,,,,1,629.8222,0,11,11,11,1,stimuli/bead_y.PNG,stimuli/bead_b.PNG,stimuli/bead_b.PNG,stimuli/bead_y.PNG,stimuli/bead_b.PNG,1,2,up
,,,1A,path,2024-04-22_18h21.10.763,Fish Game,2023.1.3,MacIntel,59.17159763,pid,,,,,,,,,,,,,,,13,,,,,,,,,,,,,,677.339,12,,,,,1,629.8222,0,12,12,12,1,stimuli/bead_y.PNG,stimuli/bead_y.PNG,stimuli/bead_b.PNG,stimuli/bead_b.PNG,stimuli/bead_y.PNG,1,2,up
,,,1A,path,2024-04-22_18h21.10.763,Fish Game,2023.1.3,MacIntel,59.17159763,pid,,,,,,,,,,,,,,,14,,,,,,,,,,,,,,682.5539,13,,,,,1,629.8222,0,13,13,13,1,stimuli/bead_y.PNG,stimuli/bead_y.PNG,stimuli/bead_y.PNG,stimuli/bead_b.PNG,stimuli/bead_b.PNG,1,2,up
,,,1A,path,2024-04-22_18h21.10.763,Fish Game,2023.1.3,MacIntel,59.17159763,pid,,,,,,,,,,,,,,,15,,,,,,,,,,,,,,687.7813,14,,,,,1,629.8222,0,14,14,14,1,stimuli/bead_g.PNG,stimuli/bead_y.PNG,stimuli/bead_y.PNG,stimuli/bead_y.PNG,stimuli/bead_b.PNG,1,2,up
,,,1A,path,2024-04-22_18h21.10.763,Fish Game,2023.1.3,MacIntel,59.17159763,pid,,,,,,,,,,,,,,,1,,,,,,,,,,,,9,1condition/mainTrials9.xlsx,698.0304,0,,,,,1,629.8222,0,0,0,0,1,stimuli/bead_g.PNG,stimuli/blank.jpg,stimuli/blank.jpg,stimuli/blank.jpg,stimuli/blank.jpg,2,3,right
,,,1A,path,2024-04-22_18h21.10.763,Fish Game,2023.1.3,MacIntel,59.17159763,pid,,,,,,,,,,,,,,,2,,,,,,,,,,,,,,703.2485,1,,,,,0.5,629.8222,0,1,1,1,1,stimuli/bead_g.PNG,stimuli/bead_g.PNG,stimuli/blank.jpg,stimuli/blank.jpg,stimuli/blank.jpg,2,3,right
,,,1A,path,2024-04-22_18h21.10.763,Fish Game,2023.1.3,MacIntel,59.17159763,pid,,,,,,,,,,,,,,,3,,,,,,,,,,,,,,708.4802,2,,,,,1,629.8222,0,2,2,2,1,stimuli/bead_b.PNG,stimuli/bead_g.PNG,stimuli/bead_g.PNG,stimuli/blank.jpg,stimuli/blank.jpg,2,3,right
,,,1A,path,2024-04-22_18h21.10.763,Fish Game,2023.1.3,MacIntel,59.17159763,pid,,,,,,,,,,,,,,,4,,,,,,,,,,,,,,713.7054,3,,,,,1,629.8222,0,3,3,3,1,stimuli/bead_g.PNG,stimuli/bead_b.PNG,stimuli/bead_g.PNG,stimuli/bead_g.PNG,stimuli/blank.jpg,2,3,right
,,,1A,path,2024-04-22_18h21.10.763,Fish Game,2023.1.3,MacIntel,59.17159763,pid,,,,,,,,,,,,,,,5,,,,,,,,,,,,,,718.9259,4,,,,,1.5,629.8222,0,4,4,4,1,stimuli/bead_g.PNG,stimuli/bead_g.PNG,stimuli/bead_b.PNG,stimuli/bead_g.PNG,stimuli/bead_g.PNG,2,3,right
,,,1A,path,2024-04-22_18h21.10.763,Fish Game,2023.1.3,MacIntel,59.17159763,pid,,,,,,,,,,,,,,,6,,,,,,,,,,,,,,724.1465,5,,,,,1,629.8222,0,5,5,5,1,stimuli/bead_b.PNG,stimuli/bead_g.PNG,stimuli/bead_g.PNG,stimuli/bead_b.PNG,stimuli/bead_g.PNG,2,3,right
,,,1A,path,2024-04-22_18h21.10.763,Fish Game,2023.1.3,MacIntel,59.17159763,pid,,,,,,,,,,,,,,,7,,,,,,,,,,,,,,729.3665,6,,,,,1,629.8222,0,6,6,6,1,stimuli/bead_g.PNG,stimuli/bead_b.PNG,stimuli/bead_g.PNG,stimuli/bead_g.PNG,stimuli/bead_b.PNG,2,3,right
,,,1A,path,2024-04-22_18h21.10.763,Fish Game,2023.1.3,MacIntel,59.17159763,pid,,,,,,,,,,,,,,,8,,,,,,,,,,,,,,734.5859,7,,,,,0.5,629.8222,0,7,7,7,1,stimuli/bead_g.PNG,stimuli/bead_g.PNG,stimuli/bead_b.PNG,stimuli/bead_g.PNG,stimuli/bead_g.PNG,2,3,right
,,,1A,path,2024-04-22_18h21.10.763,Fish Game,2023.1.3,MacIntel,59.17159763,pid,,,,,,,,,,,,,,,9,,,,,,,,,,,,,,739.8211,8,,,,,0.5,629.8222,0,8,8,8,1,stimuli/bead_b.PNG,stimuli/bead_g.PNG,stimuli/bead_g.PNG,stimuli/bead_b.PNG,stimuli/bead_g.PNG,0,1,left
,,,1A,path,2024-04-22_18h21.10.763,Fish Game,2023.1.3,MacIntel,59.17159763,pid,,,,,,,,,,,,,,,10,,,,,,,,,,,,,,745.0507,9,,,,,1.5,629.8222,0,9,9,9,1,stimuli/bead_y.PNG,stimuli/bead_b.PNG,stimuli/bead_g.PNG,stimuli/bead_g.PNG,stimuli/bead_b.PNG,0,1,left
,,,1A,path,2024-04-22_18h21.10.763,Fish Game,2023.1.3,MacIntel,59.17159763,pid,,,,,,,,,,,,,,,11,,,,,,,,,,,,,,750.2753,10,,,,,0.5,629.8222,0,10,10,10,1,stimuli/bead_b.PNG,stimuli/bead_y.PNG,stimuli/bead_b.PNG,stimuli/bead_g.PNG,stimuli/bead_g.PNG,0,1,left
,,,1A,path,2024-04-22_18h21.10.763,Fish Game,2023.1.3,MacIntel,59.17159763,pid,,,,,,,,,,,,,,,12,,,,,,,,,,,,,,755.5039,11,,,,,0.5,629.8222,0,11,11,11,1,stimuli/bead_b.PNG,stimuli/bead_b.PNG,stimuli/bead_y.PNG,stimuli/bead_b.PNG,stimuli/bead_g.PNG,0,1,left
,,,1A,path,2024-04-22_18h21.10.763,Fish Game,2023.1.3,MacIntel,59.17159763,pid,,,,,,,,,,,,,,,13,,,,,,,,,,,,,,760.7311,12,,,,,0.5,629.8222,0,12,12,12,1,stimuli/bead_b.PNG,stimuli/bead_b.PNG,stimuli/bead_b.PNG,stimuli/bead_y.PNG,stimuli/bead_b.PNG,0,1,left
,,,1A,path,2024-04-22_18h21.10.763,Fish Game,2023.1.3,MacIntel,59.17159763,pid,,,,,,,,,,,,,,,14,,,,,,,,,,,,,,765.9589,13,,,,,0.5,629.8222,0,13,13,13,1,stimuli/bead_g.PNG,stimuli/bead_b.PNG,stimuli/bead_b.PNG,stimuli/bead_b.PNG,stimuli/bead_y.PNG,0,1,left
,,,1A,path,2024-04-22_18h21.10.763,Fish Game,2023.1.3,MacIntel,59.17159763,pid,,,,,,,,,,,,,,,15,,,,,,,,,,,,,,771.1937,14,,,,,0.5,629.8222,0,14,14,14,1,stimuli/bead_b.PNG,stimuli/bead_g.PNG,stimuli/bead_b.PNG,stimuli/bead_b.PNG,stimuli/bead_b.PNG,0,1,left
,,,1A,path,2024-04-22_18h21.10.763,Fish Game,2023.1.3,MacIntel,59.17159763,pid,,,,,,,,,,,,,,,1,,,,,,,,,,,,10,1condition/mainTrials10.xlsx,781.438,0,,,,,1,629.8222,0,0,0,0,1,stimuli/bead_y.PNG,stimuli/blank.jpg,stimuli/blank.jpg,stimuli/blank.jpg,stimuli/blank.jpg,0,1,left
,,,1A,path,2024-04-22_18h21.10.763,Fish Game,2023.1.3,MacIntel,59.17159763,pid,,,,,,,,,,,,,,,2,,,,,,,,,,,,,,786.6615,1,,,,,1.5,629.8222,0,1,1,1,1,stimuli/bead_b.PNG,stimuli/bead_y.PNG,stimuli/blank.jpg,stimuli/blank.jpg,stimuli/blank.jpg,0,1,left
,,,1A,path,2024-04-22_18h21.10.763,Fish Game,2023.1.3,MacIntel,59.17159763,pid,,,,,,,,,,,,,,,3,,,,,,,,,,,,,,791.8896,2,,,,,1.5,629.8222,0,2,2,2,1,stimuli/bead_b.PNG,stimuli/bead_b.PNG,stimuli/bead_y.PNG,stimuli/blank.jpg,stimuli/blank.jpg,0,1,left
,,,1A,path,2024-04-22_18h21.10.763,Fish Game,2023.1.3,MacIntel,59.17159763,pid,,,,,,,,,,,,,,,4,,,,,,,,,,,,,,797.1092,3,,,,,1,629.8222,0,3,3,3,1,stimuli/bead_b.PNG,stimuli/bead_b.PNG,stimuli/bead_b.PNG,stimuli/bead_y.PNG,stimuli/blank.jpg,0,1,left
,,,1A,path,2024-04-22_18h21.10.763,Fish Game,2023.1.3,MacIntel,59.17159763,pid,,,,,,,,,,,,,,,5,,,,,,,,,,,,,,802.3229,4,,,,,0.5,629.8222,0,4,4,4,1,stimuli/bead_b.PNG,stimuli/bead_b.PNG,stimuli/bead_b.PNG,stimuli/bead_b.PNG,stimuli/bead_y.PNG,0,1,left
,,,1A,path,2024-04-22_18h21.10.763,Fish Game,2023.1.3,MacIntel,59.17159763,pid,,,,,,,,,,,,,,,6,,,,,,,,,,,,,,807.5571,5,,,,,1.5,629.8222,0,5,5,5,1,stimuli/bead_g.PNG,stimuli/bead_b.PNG,stimuli/bead_b.PNG,stimuli/bead_b.PNG,stimuli/bead_b.PNG,0,1,left
,,,1A,path,2024-04-22_18h21.10.763,Fish Game,2023.1.3,MacIntel,59.17159763,pid,,,,,,,,,,,,,,,7,,,,,,,,,,,,,,812.783,6,,,,,1.5,629.8222,0,6,6,6,1,stimuli/bead_b.PNG,stimuli/bead_g.PNG,stimuli/bead_b.PNG,stimuli/bead_b.PNG,stimuli/bead_b.PNG,0,1,left
,,,1A,path,2024-04-22_18h21.10.763,Fish Game,2023.1.3,MacIntel,59.17159763,pid,,,,,,,,,,,,,,,8,,,,,,,,,,,,,,818.0005,7,,,,,1,629.8222,0,7,7,7,1,stimuli/bead_b.PNG,stimuli/bead_b.PNG,stimuli/bead_g.PNG,stimuli/bead_b.PNG,stimuli/bead_b.PNG,0,1,left
,,,1A,path,2024-04-22_18h21.10.763,Fish Game,2023.1.3,MacIntel,59.17159763,pid,,,,,,,,,,,,,,,9,,,,,,,,,,,,,,823.218,8,,,,,1,629.8222,0,8,8,8,1,stimuli/bead_y.PNG,stimuli/bead_b.PNG,stimuli/bead_b.PNG,stimuli/bead_g.PNG,stimuli/bead_b.PNG,0,1,left
,,,1A,path,2024-04-22_18h21.10.763,Fish Game,2023.1.3,MacIntel,59.17159763,pid,,,,,,,,,,,,,,,10,,,,,,,,,,,,,,828.4502,9,,,,,1.5,629.8222,0,9,9,9,1,stimuli/bead_b.PNG,stimuli/bead_y.PNG,stimuli/bead_b.PNG,stimuli/bead_b.PNG,stimuli/bead_g.PNG,0,1,left
,,,1A,path,2024-04-22_18h21.10.763,Fish Game,2023.1.3,MacIntel,59.17159763,pid,,,,,,,,,,,,,,,11,,,,,,,,,,,,,,833.6809,10,,,,,1.5,629.8222,0,10,10,10,1,stimuli/bead_g.PNG,stimuli/bead_b.PNG,stimuli/bead_y.PNG,stimuli/bead_b.PNG,stimuli/bead_b.PNG,2,3,right
,,,1A,path,2024-04-22_18h21.10.763,Fish Game,2023.1.3,MacIntel,59.17159763,pid,,,,,,,,,,,,,,,12,,,,,,,,,,,,,,838.9125,11,,,,,0.5,629.8222,0,11,11,11,1,stimuli/bead_b.PNG,stimuli/bead_g.PNG,stimuli/bead_b.PNG,stimuli/bead_y.PNG,stimuli/bead_b.PNG,2,3,right
,,,1A,path,2024-04-22_18h21.10.763,Fish Game,2023.1.3,MacIntel,59.17159763,pid,,,,,,,,,,,,,,,13,,,,,,,,,,,,,,844.1347,12,,,,,1.5,629.8222,0,12,12,12,1,stimuli/bead_g.PNG,stimuli/bead_b.PNG,stimuli/bead_g.PNG,stimuli/bead_b.PNG,stimuli/bead_y.PNG,2,3,right
,,,1A,path,2024-04-22_18h21.10.763,Fish Game,2023.1.3,MacIntel,59.17159763,pid,,,,,,,,,,,,,,,14,,,,,,,,,,,,,,849.3624,13,,,,,1,629.8222,0,13,13,13,1,stimuli/bead_g.PNG,stimuli/bead_g.PNG,stimuli/bead_b.PNG,stimuli/bead_g.PNG,stimuli/bead_b.PNG,2,3,right
,,,1A,path,2024-04-22_18h21.10.763,Fish Game,2023.1.3,MacIntel,59.17159763,pid,,,,,,,,,,,,,,,15,,,,,,,,,,,,,,854.5891,14,,,,,1,629.8222,0,14,14,14,1,stimuli/bead_g.PNG,stimuli/bead_g.PNG,stimuli/bead_g.PNG,stimuli/bead_b.PNG,stimuli/bead_g.PNG,2,3,right
