welcome_key_keys,welcome_key_rt,welcome_key_duration,group_id,path_id,date,expName,psychopyVersion,OS,frameRate,study_id,session_id,prolific_pid,ins1_key_keys,ins1_key_rt,ins1_key_duration,practice_trial_started,practice_trial_num,prac_key_resp_keys,prac_key_resp_rt,prac_key_resp_duration,prac_resp_corr,prac_trials.thisRepN,prac_trials.thisTrialN,prac_trials.thisN,prac_trials.thisIndex,prac_trials.ran,trial,fish1_p,fish2_p,fish3_p,fish4_p,fish5_p,pond_p,pond_p2,pond_p3,ExpStart_key_keys,ExpStart_key_rt,ExpStart_key_duration,block number,block assignment,main_trial_started,main_trial_num,trial_resp_keys,trial_resp_rt,trial_resp_duration,main_resp_corr,fish_interval,key_resp_time,trials.thisRepN,trials.thisTrialN,trials.thisN,trials.thisIndex,trials.ran,fish1,fish2,fish3,fish4,fish5,pond,pond2,pond3
space,9.7204,,1A,A,2024-02-16_14h44.12.299,Fish Game,2023.1.3,MacIntel,59.97361161,justicestudyid,justicesessionid,justiceprolificid,,,,,,,,,,,,,,,,,,,,,,,,,,,,,,,,,,,,,,,,,,,,,,,,,
,,,1A,A,2024-02-16_14h44.12.299,Fish Game,2023.1.3,MacIntel,59.97361161,justicestudyid,justicesessionid,justiceprolificid,space,26.5197,,,,,,,,,,,,,,,,,,,,,,,,,,,,,,,,,,,,,,,,,,,,,,,
,,,1A,A,2024-02-16_14h44.12.299,Fish Game,2023.1.3,MacIntel,59.97361161,justicestudyid,justicesessionid,justiceprolificid,,,,,,,,,,,,,,,,,,,,,,,,,,,,,,,,,,,,,,,,,,,,,,,,,
,,,1A,A,2024-02-16_14h44.12.299,Fish Game,2023.1.3,MacIntel,59.97361161,justicestudyid,justicesessionid,justiceprolificid,,,,,,,,,,,,,,,,,,,,,,,,,,,,,,,,,,,,,,,,,,,,,,,,,
,,,1A,A,2024-02-16_14h44.12.299,Fish Game,2023.1.3,MacIntel,59.97361161,justicestudyid,justicesessionid,justiceprolificid,,,,,,,,,,,,,,,,,,,,,,,,,,,,,,,,,,,,,,,,,,,,,,,,,
,,,1A,A,2024-02-16_14h44.12.299,Fish Game,2023.1.3,MacIntel,59.97361161,justicestudyid,justicesessionid,justiceprolificid,,,,,,,,,,,,,,,,,,,,,,,,,,,,,,,,,,,,,,,,,,,,,,,,,
,,,1A,A,2024-02-16_14h44.12.299,Fish Game,2023.1.3,MacIntel,59.97361161,justicestudyid,justicesessionid,justiceprolificid,,,,173.8434,0,left,1.8859,,1,0,0,0,0,1,1,stimuli/bead_b.PNG,stimuli/blank.jpg,stimuli/blank.jpg,stimuli/blank.jpg,stimuli/blank.jpg,0,1,left,,,,,,,,,,,,,,,,,,,,,,,,,,
,,,1A,A,2024-02-16_14h44.12.299,Fish Game,2023.1.3,MacIntel,59.97361161,justicestudyid,justicesessionid,justiceprolificid,,,,177.5586,1,left,0.2675,,1,0,1,1,1,1,2,stimuli/bead_b.PNG,stimuli/bead_b.PNG,stimuli/blank.jpg,stimuli/blank.jpg,stimuli/blank.jpg,0,1,left,,,,,,,,,,,,,,,,,,,,,,,,,,
,,,1A,A,2024-02-16_14h44.12.299,Fish Game,2023.1.3,MacIntel,59.97361161,justicestudyid,justicesessionid,justiceprolificid,,,,179.66,2,right,1.6344,,0,0,2,2,2,1,3,stimuli/bead_g.PNG,stimuli/bead_b.PNG,stimuli/bead_b.PNG,stimuli/blank.jpg,stimuli/blank.jpg,0,1,left,,,,,,,,,,,,,,,,,,,,,,,,,,
,,,1A,A,2024-02-16_14h44.12.299,Fish Game,2023.1.3,MacIntel,59.97361161,justicestudyid,justicesessionid,justiceprolificid,,,,183.6289,3,left,1.0182,,1,0,3,3,3,1,4,stimuli/bead_b.PNG,stimuli/bead_g.PNG,stimuli/bead_b.PNG,stimuli/bead_b.PNG,stimuli/blank.jpg,0,1,left,,,,,,,,,,,,,,,,,,,,,,,,,,
,,,1A,A,2024-02-16_14h44.12.299,Fish Game,2023.1.3,MacIntel,59.97361161,justicestudyid,justicesessionid,justiceprolificid,,,,186.4795,4,left,1.269,,1,0,4,4,4,1,5,stimuli/bead_b.PNG,stimuli/bead_b.PNG,stimuli/bead_g.PNG,stimuli/bead_b.PNG,stimuli/bead_b.PNG,0,1,left,,,,,,,,,,,,,,,,,,,,,,,,,,
,,,1A,A,2024-02-16_14h44.12.299,Fish Game,2023.1.3,MacIntel,59.97361161,justicestudyid,justicesessionid,justiceprolificid,,,,190.0803,5,up,3.3703,,0,0,5,5,5,1,6,stimuli/bead_y.PNG,stimuli/bead_b.PNG,stimuli/bead_b.PNG,stimuli/bead_g.PNG,stimuli/bead_b.PNG,0,1,left,,,,,,,,,,,,,,,,,,,,,,,,,,
,,,1A,A,2024-02-16_14h44.12.299,Fish Game,2023.1.3,MacIntel,59.97361161,justicestudyid,justicesessionid,justiceprolificid,,,,195.282,6,left,2.5336,,1,0,6,6,6,1,7,stimuli/bead_b.PNG,stimuli/bead_y.PNG,stimuli/bead_b.PNG,stimuli/bead_b.PNG,stimuli/bead_g.PNG,0,1,left,,,,,,,,,,,,,,,,,,,,,,,,,,
,,,1A,A,2024-02-16_14h44.12.299,Fish Game,2023.1.3,MacIntel,59.97361161,justicestudyid,justicesessionid,justiceprolificid,,,,200.1349,7,,,,,0,7,7,7,1,8,stimuli/bead_y.PNG,stimuli/bead_b.PNG,stimuli/bead_y.PNG,stimuli/bead_b.PNG,stimuli/bead_b.PNG,1,2,up,,,,,,,,,,,,,,,,,,,,,,,,,,
,,,1A,A,2024-02-16_14h44.12.299,Fish Game,2023.1.3,MacIntel,59.97361161,justicestudyid,justicesessionid,justiceprolificid,,,,205.6401,8,up,1.5211,,1,0,8,8,8,1,9,stimuli/bead_y.PNG,stimuli/bead_y.PNG,stimuli/bead_b.PNG,stimuli/bead_y.PNG,stimuli/bead_b.PNG,1,2,up,,,,,,,,,,,,,,,,,,,,,,,,,,
,,,1A,A,2024-02-16_14h44.12.299,Fish Game,2023.1.3,MacIntel,59.97361161,justicestudyid,justicesessionid,justiceprolificid,,,,208.4891,9,left,1.2174,,0,0,9,9,9,1,10,stimuli/bead_b.PNG,stimuli/bead_y.PNG,stimuli/bead_y.PNG,stimuli/bead_b.PNG,stimuli/bead_y.PNG,1,2,up,,,,,,,,,,,,,,,,,,,,,,,,,,
,,,1A,A,2024-02-16_14h44.12.299,Fish Game,2023.1.3,MacIntel,59.97361161,justicestudyid,justicesessionid,justiceprolificid,,,,212.0401,10,up,0.8962,,1,0,10,10,10,1,11,stimuli/bead_y.PNG,stimuli/bead_b.PNG,stimuli/bead_y.PNG,stimuli/bead_y.PNG,stimuli/bead_b.PNG,1,2,up,,,,,,,,,,,,,,,,,,,,,,,,,,
,,,1A,A,2024-02-16_14h44.12.299,Fish Game,2023.1.3,MacIntel,59.97361161,justicestudyid,justicesessionid,justiceprolificid,,,,215.2575,11,up,1.354,,1,0,11,11,11,1,12,stimuli/bead_y.PNG,stimuli/bead_y.PNG,stimuli/bead_b.PNG,stimuli/bead_y.PNG,stimuli/bead_y.PNG,1,2,up,,,,,,,,,,,,,,,,,,,,,,,,,,
,,,1A,A,2024-02-16_14h44.12.299,Fish Game,2023.1.3,MacIntel,59.97361161,justicestudyid,justicesessionid,justiceprolificid,,,,218.4268,12,up,1.4476,,1,0,12,12,12,1,13,stimuli/bead_b.PNG,stimuli/bead_y.PNG,stimuli/bead_y.PNG,stimuli/bead_b.PNG,stimuli/bead_y.PNG,1,2,up,,,,,,,,,,,,,,,,,,,,,,,,,,
,,,1A,A,2024-02-16_14h44.12.299,Fish Game,2023.1.3,MacIntel,59.97361161,justicestudyid,justicesessionid,justiceprolificid,,,,221.2129,13,up,1.32,,1,0,13,13,13,1,14,stimuli/bead_y.PNG,stimuli/bead_b.PNG,stimuli/bead_y.PNG,stimuli/bead_y.PNG,stimuli/bead_b.PNG,1,2,up,,,,,,,,,,,,,,,,,,,,,,,,,,
,,,1A,A,2024-02-16_14h44.12.299,Fish Game,2023.1.3,MacIntel,59.97361161,justicestudyid,justicesessionid,justiceprolificid,,,,223.8652,14,up,0.901,,1,0,14,14,14,1,15,stimuli/bead_y.PNG,stimuli/bead_y.PNG,stimuli/bead_b.PNG,stimuli/bead_y.PNG,stimuli/bead_y.PNG,1,2,up,,,,,,,,,,,,,,,,,,,,,,,,,,
,,,1A,A,2024-02-16_14h44.12.299,Fish Game,2023.1.3,MacIntel,59.97361161,justicestudyid,justicesessionid,justiceprolificid,,,,232.1155,0,right,1.7962,,1,0,0,0,0,1,1,stimuli/bead_g.PNG,stimuli/blank.jpg,stimuli/blank.jpg,stimuli/blank.jpg,stimuli/blank.jpg,2,3,right,,,,,,,,,,,,,,,,,,,,,,,,,,
,,,1A,A,2024-02-16_14h44.12.299,Fish Game,2023.1.3,MacIntel,59.97361161,justicestudyid,justicesessionid,justiceprolificid,,,,235.7349,1,right,1.869,,1,0,1,1,1,1,2,stimuli/bead_g.PNG,stimuli/bead_g.PNG,stimuli/blank.jpg,stimuli/blank.jpg,stimuli/blank.jpg,2,3,right,,,,,,,,,,,,,,,,,,,,,,,,,,
,,,1A,A,2024-02-16_14h44.12.299,Fish Game,2023.1.3,MacIntel,59.97361161,justicestudyid,justicesessionid,justiceprolificid,,,,238.9359,2,right,1.5343,,1,0,2,2,2,1,3,stimuli/bead_b.PNG,stimuli/bead_g.PNG,stimuli/bead_g.PNG,stimuli/blank.jpg,stimuli/blank.jpg,2,3,right,,,,,,,,,,,,,,,,,,,,,,,,,,
,,,1A,A,2024-02-16_14h44.12.299,Fish Game,2023.1.3,MacIntel,59.97361161,justicestudyid,justicesessionid,justiceprolificid,,,,241.7868,3,right,0.981,,1,0,3,3,3,1,4,stimuli/bead_g.PNG,stimuli/bead_b.PNG,stimuli/bead_g.PNG,stimuli/bead_g.PNG,stimuli/blank.jpg,2,3,right,,,,,,,,,,,,,,,,,,,,,,,,,,
,,,1A,A,2024-02-16_14h44.12.299,Fish Game,2023.1.3,MacIntel,59.97361161,justicestudyid,justicesessionid,justiceprolificid,,,,245.0882,4,right,1.3521,,1,0,4,4,4,1,5,stimuli/bead_b.PNG,stimuli/bead_g.PNG,stimuli/bead_b.PNG,stimuli/bead_g.PNG,stimuli/bead_g.PNG,2,3,right,,,,,,,,,,,,,,,,,,,,,,,,,,
,,,1A,A,2024-02-16_14h44.12.299,Fish Game,2023.1.3,MacIntel,59.97361161,justicestudyid,justicesessionid,justiceprolificid,,,,248.2575,5,right,1.0185,,1,0,5,5,5,1,6,stimuli/bead_g.PNG,stimuli/bead_b.PNG,stimuli/bead_g.PNG,stimuli/bead_b.PNG,stimuli/bead_g.PNG,2,3,right,,,,,,,,,,,,,,,,,,,,,,,,,,
,,,1A,A,2024-02-16_14h44.12.299,Fish Game,2023.1.3,MacIntel,59.97361161,justicestudyid,justicesessionid,justiceprolificid,,,,251.108,6,right,0.8188,,1,0,6,6,6,1,7,stimuli/bead_g.PNG,stimuli/bead_g.PNG,stimuli/bead_b.PNG,stimuli/bead_g.PNG,stimuli/bead_b.PNG,2,3,right,,,,,,,,,,,,,,,,,,,,,,,,,,
,,,1A,A,2024-02-16_14h44.12.299,Fish Game,2023.1.3,MacIntel,59.97361161,justicestudyid,justicesessionid,justiceprolificid,,,,253.7442,7,right,0.6505,,1,0,7,7,7,1,8,stimuli/bead_g.PNG,stimuli/bead_g.PNG,stimuli/bead_g.PNG,stimuli/bead_b.PNG,stimuli/bead_g.PNG,2,3,right,,,,,,,,,,,,,,,,,,,,,,,,,,
,,,1A,A,2024-02-16_14h44.12.299,Fish Game,2023.1.3,MacIntel,59.97361161,justicestudyid,justicesessionid,justiceprolificid,,,,256.7291,8,right,1.2674,,0,0,8,8,8,1,9,stimuli/bead_y.PNG,stimuli/bead_g.PNG,stimuli/bead_g.PNG,stimuli/bead_g.PNG,stimuli/bead_b.PNG,1,2,up,,,,,,,,,,,,,,,,,,,,,,,,,,
,,,1A,A,2024-02-16_14h44.12.299,Fish Game,2023.1.3,MacIntel,59.97361161,justicestudyid,justicesessionid,justiceprolificid,,,,259.8146,9,up,0.6674,,1,0,9,9,9,1,10,stimuli/bead_y.PNG,stimuli/bead_y.PNG,stimuli/bead_g.PNG,stimuli/bead_g.PNG,stimuli/bead_g.PNG,1,2,up,,,,,,,,,,,,,,,,,,,,,,,,,,
,,,1A,A,2024-02-16_14h44.12.299,Fish Game,2023.1.3,MacIntel,59.97361161,justicestudyid,justicesessionid,justiceprolificid,,,,261.8132,10,up,0.6675,,1,0,10,10,10,1,11,stimuli/bead_y.PNG,stimuli/bead_y.PNG,stimuli/bead_y.PNG,stimuli/bead_g.PNG,stimuli/bead_g.PNG,1,2,up,,,,,,,,,,,,,,,,,,,,,,,,,,
,,,1A,A,2024-02-16_14h44.12.299,Fish Game,2023.1.3,MacIntel,59.97361161,justicestudyid,justicesessionid,justiceprolificid,,,,263.814,11,up,1.4166,,1,0,11,11,11,1,12,stimuli/bead_g.PNG,stimuli/bead_y.PNG,stimuli/bead_y.PNG,stimuli/bead_y.PNG,stimuli/bead_g.PNG,1,2,up,,,,,,,,,,,,,,,,,,,,,,,,,,
,,,1A,A,2024-02-16_14h44.12.299,Fish Game,2023.1.3,MacIntel,59.97361161,justicestudyid,justicesessionid,justiceprolificid,,,,267.052,12,up,0.651,,1,0,12,12,12,1,13,stimuli/bead_y.PNG,stimuli/bead_g.PNG,stimuli/bead_y.PNG,stimuli/bead_y.PNG,stimuli/bead_y.PNG,1,2,up,,,,,,,,,,,,,,,,,,,,,,,,,,
,,,1A,A,2024-02-16_14h44.12.299,Fish Game,2023.1.3,MacIntel,59.97361161,justicestudyid,justicesessionid,justiceprolificid,,,,269.0355,13,up,0.6832,,1,0,13,13,13,1,14,stimuli/bead_y.PNG,stimuli/bead_y.PNG,stimuli/bead_g.PNG,stimuli/bead_y.PNG,stimuli/bead_y.PNG,1,2,up,,,,,,,,,,,,,,,,,,,,,,,,,,
,,,1A,A,2024-02-16_14h44.12.299,Fish Game,2023.1.3,MacIntel,59.97361161,justicestudyid,justicesessionid,justiceprolificid,,,,271.554,14,up,1.2008,,1,0,14,14,14,1,15,stimuli/bead_b.PNG,stimuli/bead_y.PNG,stimuli/bead_y.PNG,stimuli/bead_g.PNG,stimuli/bead_y.PNG,1,2,up,,,,,,,,,,,,,,,,,,,,,,,,,,
,,,1A,A,2024-02-16_14h44.12.299,Fish Game,2023.1.3,MacIntel,59.97361161,justicestudyid,justicesessionid,justiceprolificid,,,,,,,,,,,,,,,1,,,,,,,,,space,5.7172,,1,1condition/mainTrials1.xlsx,285.3589,0,right,1.0182,,1,0.5,286.9091,0,0,0,0,1,stimuli/bead_g.PNG,stimuli/blank.jpg,stimuli/blank.jpg,stimuli/blank.jpg,stimuli/blank.jpg,2,3,right
,,,1A,A,2024-02-16_14h44.12.299,Fish Game,2023.1.3,MacIntel,59.97361161,justicestudyid,justicesessionid,justiceprolificid,,,,,,,,,,,,,,,2,,,,,,,,,,,,,,287.4112,1,right,1.4794,,1,0.5,289.4272,0,1,1,1,1,stimuli/bead_y.PNG,stimuli/bead_g.PNG,stimuli/blank.jpg,stimuli/blank.jpg,stimuli/blank.jpg,2,3,right
,,,1A,A,2024-02-16_14h44.12.299,Fish Game,2023.1.3,MacIntel,59.97361161,justicestudyid,justicesessionid,justiceprolificid,,,,,,,,,,,,,,,3,,,,,,,,,,,,,,289.9265,2,right,1.0025,,1,0.5,291.4613,0,2,2,2,1,stimuli/bead_g.PNG,stimuli/bead_y.PNG,stimuli/bead_g.PNG,stimuli/blank.jpg,stimuli/blank.jpg,2,3,right
,,,1A,A,2024-02-16_14h44.12.299,Fish Game,2023.1.3,MacIntel,59.97361161,justicestudyid,justicesessionid,justiceprolificid,,,,,,,,,,,,,,,4,,,,,,,,,,,,,,291.9619,3,right,1.0019,,1,0.5,293.4967,0,3,3,3,1,stimuli/bead_b.PNG,stimuli/bead_g.PNG,stimuli/bead_y.PNG,stimuli/bead_g.PNG,stimuli/blank.jpg,2,3,right
,,,1A,A,2024-02-16_14h44.12.299,Fish Game,2023.1.3,MacIntel,59.97361161,justicestudyid,justicesessionid,justiceprolificid,,,,,,,,,,,,,,,5,,,,,,,,,,,,,,293.9959,4,right,0.7344,,1,1,295.762,0,4,4,4,1,stimuli/bead_g.PNG,stimuli/bead_b.PNG,stimuli/bead_g.PNG,stimuli/bead_y.PNG,stimuli/bead_g.PNG,2,3,right
,,,1A,A,2024-02-16_14h44.12.299,Fish Game,2023.1.3,MacIntel,59.97361161,justicestudyid,justicesessionid,justiceprolificid,,,,,,,,,,,,,,,6,,,,,,,,,,,,,,296.266,5,right,0.703,,1,1.5,298.4978,0,5,5,5,1,stimuli/bead_g.PNG,stimuli/bead_g.PNG,stimuli/bead_b.PNG,stimuli/bead_g.PNG,stimuli/bead_y.PNG,2,3,right
,,,1A,A,2024-02-16_14h44.12.299,Fish Game,2023.1.3,MacIntel,59.97361161,justicestudyid,justicesessionid,justiceprolificid,,,,,,,,,,,,,,,7,,,,,,,,,,,,,,299.0005,6,right,0.7165,,1,0.5,300.2482,0,6,6,6,1,stimuli/bead_g.PNG,stimuli/bead_g.PNG,stimuli/bead_g.PNG,stimuli/bead_b.PNG,stimuli/bead_g.PNG,2,3,right
,,,1A,A,2024-02-16_14h44.12.299,Fish Game,2023.1.3,MacIntel,59.97361161,justicestudyid,justicesessionid,justiceprolificid,,,,,,,,,,,,,,,8,,,,,,,,,,,,,,300.7476,7,right,0.6459,,1,1,302.4149,0,7,7,7,1,stimuli/bead_g.PNG,stimuli/bead_g.PNG,stimuli/bead_g.PNG,stimuli/bead_g.PNG,stimuli/bead_b.PNG,2,3,right
,,,1A,A,2024-02-16_14h44.12.299,Fish Game,2023.1.3,MacIntel,59.97361161,justicestudyid,justicesessionid,justiceprolificid,,,,,,,,,,,,,,,9,,,,,,,,,,,,,,302.9181,8,right,0.8518,,1,1,304.8016,0,8,8,8,1,stimuli/bead_b.PNG,stimuli/bead_g.PNG,stimuli/bead_g.PNG,stimuli/bead_g.PNG,stimuli/bead_g.PNG,2,3,right
,,,1A,A,2024-02-16_14h44.12.299,Fish Game,2023.1.3,MacIntel,59.97361161,justicestudyid,justicesessionid,justiceprolificid,,,,,,,,,,,,,,,10,,,,,,,,,,,,,,305.3024,9,right,0.7169,,1,1.5,307.5507,0,9,9,9,1,stimuli/bead_g.PNG,stimuli/bead_b.PNG,stimuli/bead_g.PNG,stimuli/bead_g.PNG,stimuli/bead_g.PNG,2,3,right
,,,1A,A,2024-02-16_14h44.12.299,Fish Game,2023.1.3,MacIntel,59.97361161,justicestudyid,justicesessionid,justiceprolificid,,,,,,,,,,,,,,,11,,,,,,,,,,,,,,308.0523,10,right,0.502,,1,1,309.5856,0,10,10,10,1,stimuli/bead_g.PNG,stimuli/bead_g.PNG,stimuli/bead_b.PNG,stimuli/bead_g.PNG,stimuli/bead_g.PNG,2,3,right
,,,1A,A,2024-02-16_14h44.12.299,Fish Game,2023.1.3,MacIntel,59.97361161,justicestudyid,justicesessionid,justiceprolificid,,,,,,,,,,,,,,,12,,,,,,,,,,,,,,310.0884,11,right,0.6664,,1,0.5,311.2868,0,11,11,11,1,stimuli/bead_g.PNG,stimuli/bead_g.PNG,stimuli/bead_g.PNG,stimuli/bead_b.PNG,stimuli/bead_g.PNG,2,3,right
,,,1A,A,2024-02-16_14h44.12.299,Fish Game,2023.1.3,MacIntel,59.97361161,justicestudyid,justicesessionid,justiceprolificid,,,,,,,,,,,,,,,13,,,,,,,,,,,,,,311.7871,12,right,0.7012,,0,0.5,313.0044,0,12,12,12,1,stimuli/bead_b.PNG,stimuli/bead_g.PNG,stimuli/bead_g.PNG,stimuli/bead_g.PNG,stimuli/bead_b.PNG,0,1,left
,,,1A,A,2024-02-16_14h44.12.299,Fish Game,2023.1.3,MacIntel,59.97361161,justicestudyid,justicesessionid,justiceprolificid,,,,,,,,,,,,,,,14,,,,,,,,,,,,,,313.5054,13,left,0.5518,,1,0.5,314.5873,0,13,13,13,1,stimuli/bead_b.PNG,stimuli/bead_b.PNG,stimuli/bead_g.PNG,stimuli/bead_g.PNG,stimuli/bead_g.PNG,0,1,left
,,,1A,A,2024-02-16_14h44.12.299,Fish Game,2023.1.3,MacIntel,59.97361161,justicestudyid,justicesessionid,justiceprolificid,,,,,,,,,,,,,,,15,,,,,,,,,,,,,,315.0914,14,left,0.5366,,1,0.5,316.1556,0,14,14,14,1,stimuli/bead_b.PNG,stimuli/bead_b.PNG,stimuli/bead_b.PNG,stimuli/bead_g.PNG,stimuli/bead_g.PNG,0,1,left
,,,1A,A,2024-02-16_14h44.12.299,Fish Game,2023.1.3,MacIntel,59.97361161,justicestudyid,justicesessionid,justiceprolificid,,,,,,,,,,,,,,,1,,,,,,,,,,,,2,1condition/mainTrials2.xlsx,321.667,0,up,0.9046,,1,1,323.5949,0,0,0,0,1,stimuli/bead_y.PNG,stimuli/blank.jpg,stimuli/blank.jpg,stimuli/blank.jpg,stimuli/blank.jpg,1,2,up
,,,1A,A,2024-02-16_14h44.12.299,Fish Game,2023.1.3,MacIntel,59.97361161,justicestudyid,justicesessionid,justiceprolificid,,,,,,,,,,,,,,,2,,,,,,,,,,,,,,324.0953,1,up,1.3513,,1,1,326.4765,0,1,1,1,1,stimuli/bead_b.PNG,stimuli/bead_y.PNG,stimuli/blank.jpg,stimuli/blank.jpg,stimuli/blank.jpg,1,2,up
,,,1A,A,2024-02-16_14h44.12.299,Fish Game,2023.1.3,MacIntel,59.97361161,justicestudyid,justicesessionid,justiceprolificid,,,,,,,,,,,,,,,3,,,,,,,,,,,,,,326.9802,2,up,0.5185,,1,0.5,328.0272,0,2,2,2,1,stimuli/bead_y.PNG,stimuli/bead_b.PNG,stimuli/bead_y.PNG,stimuli/blank.jpg,stimuli/blank.jpg,1,2,up
,,,1A,A,2024-02-16_14h44.12.299,Fish Game,2023.1.3,MacIntel,59.97361161,justicestudyid,justicesessionid,justiceprolificid,,,,,,,,,,,,,,,4,,,,,,,,,,,,,,328.5279,3,up,0.4338,,1,1,329.9804,0,3,3,3,1,stimuli/bead_y.PNG,stimuli/bead_y.PNG,stimuli/bead_b.PNG,stimuli/bead_y.PNG,stimuli/blank.jpg,1,2,up
,,,1A,A,2024-02-16_14h44.12.299,Fish Game,2023.1.3,MacIntel,59.97361161,justicestudyid,justicesessionid,justiceprolificid,,,,,,,,,,,,,,,5,,,,,,,,,,,,,,330.4802,4,up,0.867,,1,0.5,331.88,0,4,4,4,1,stimuli/bead_g.PNG,stimuli/bead_y.PNG,stimuli/bead_y.PNG,stimuli/bead_b.PNG,stimuli/bead_y.PNG,1,2,up
,,,1A,A,2024-02-16_14h44.12.299,Fish Game,2023.1.3,MacIntel,59.97361161,justicestudyid,justicesessionid,justiceprolificid,,,,,,,,,,,,,,,6,,,,,,,,,,,,,,332.3808,5,up,0.5523,,1,1,333.9634,0,5,5,5,1,stimuli/bead_y.PNG,stimuli/bead_g.PNG,stimuli/bead_y.PNG,stimuli/bead_y.PNG,stimuli/bead_b.PNG,1,2,up
,,,1A,A,2024-02-16_14h44.12.299,Fish Game,2023.1.3,MacIntel,59.97361161,justicestudyid,justicesessionid,justiceprolificid,,,,,,,,,,,,,,,7,,,,,,,,,,,,,,334.4674,6,up,0.8002,,0,1.5,336.798,0,6,6,6,1,stimuli/bead_b.PNG,stimuli/bead_y.PNG,stimuli/bead_g.PNG,stimuli/bead_y.PNG,stimuli/bead_y.PNG,0,1,left
,,,1A,A,2024-02-16_14h44.12.299,Fish Game,2023.1.3,MacIntel,59.97361161,justicestudyid,justicesessionid,justiceprolificid,,,,,,,,,,,,,,,8,,,,,,,,,,,,,,337.2994,7,left,0.8178,,1,0.5,338.6329,0,7,7,7,1,stimuli/bead_b.PNG,stimuli/bead_b.PNG,stimuli/bead_y.PNG,stimuli/bead_g.PNG,stimuli/bead_y.PNG,0,1,left
,,,1A,A,2024-02-16_14h44.12.299,Fish Game,2023.1.3,MacIntel,59.97361161,justicestudyid,justicesessionid,justiceprolificid,,,,,,,,,,,,,,,9,,,,,,,,,,,,,,339.1328,8,left,1.3206,,1,1,341.4687,0,8,8,8,1,stimuli/bead_y.PNG,stimuli/bead_b.PNG,stimuli/bead_b.PNG,stimuli/bead_y.PNG,stimuli/bead_g.PNG,0,1,left
,,,1A,A,2024-02-16_14h44.12.299,Fish Game,2023.1.3,MacIntel,59.97361161,justicestudyid,justicesessionid,justiceprolificid,,,,,,,,,,,,,,,10,,,,,,,,,,,,,,341.9688,9,left,0.7664,,1,0.5,343.2683,0,9,9,9,1,stimuli/bead_b.PNG,stimuli/bead_y.PNG,stimuli/bead_b.PNG,stimuli/bead_b.PNG,stimuli/bead_y.PNG,0,1,left
,,,1A,A,2024-02-16_14h44.12.299,Fish Game,2023.1.3,MacIntel,59.97361161,justicestudyid,justicesessionid,justiceprolificid,,,,,,,,,,,,,,,11,,,,,,,,,,,,,,343.7685,10,left,0.5181,,1,0.5,344.8018,0,10,10,10,1,stimuli/bead_b.PNG,stimuli/bead_b.PNG,stimuli/bead_y.PNG,stimuli/bead_b.PNG,stimuli/bead_b.PNG,0,1,left
,,,1A,A,2024-02-16_14h44.12.299,Fish Game,2023.1.3,MacIntel,59.97361161,justicestudyid,justicesessionid,justiceprolificid,,,,,,,,,,,,,,,12,,,,,,,,,,,,,,345.3025,11,left,0.5666,,1,1.5,347.3909,0,11,11,11,1,stimuli/bead_b.PNG,stimuli/bead_b.PNG,stimuli/bead_b.PNG,stimuli/bead_y.PNG,stimuli/bead_b.PNG,0,1,left
,,,1A,A,2024-02-16_14h44.12.299,Fish Game,2023.1.3,MacIntel,59.97361161,justicestudyid,justicesessionid,justiceprolificid,,,,,,,,,,,,,,,13,,,,,,,,,,,,,,347.8884,12,left,1.6854,,1,0.5,350.1061,0,12,12,12,1,stimuli/bead_g.PNG,stimuli/bead_b.PNG,stimuli/bead_b.PNG,stimuli/bead_b.PNG,stimuli/bead_y.PNG,0,1,left
,,,1A,A,2024-02-16_14h44.12.299,Fish Game,2023.1.3,MacIntel,59.97361161,justicestudyid,justicesessionid,justiceprolificid,,,,,,,,,,,,,,,14,,,,,,,,,,,,,,350.6062,13,left,1.6884,,1,1.5,353.8238,0,13,13,13,1,stimuli/bead_b.PNG,stimuli/bead_g.PNG,stimuli/bead_b.PNG,stimuli/bead_b.PNG,stimuli/bead_b.PNG,0,1,left
,,,1A,A,2024-02-16_14h44.12.299,Fish Game,2023.1.3,MacIntel,59.97361161,justicestudyid,justicesessionid,justiceprolificid,,,,,,,,,,,,,,,15,,,,,,,,,,,,,,354.3233,14,left,1.0502,,1,0.5,355.9076,0,14,14,14,1,stimuli/bead_b.PNG,stimuli/bead_b.PNG,stimuli/bead_g.PNG,stimuli/bead_b.PNG,stimuli/bead_b.PNG,0,1,left
,,,1A,A,2024-02-16_14h44.12.299,Fish Game,2023.1.3,MacIntel,59.97361161,justicestudyid,justicesessionid,justiceprolificid,,,,,,,,,,,,,,,1,,,,,,,,,,,,3,1condition/mainTrials3.xlsx,361.4196,0,,,,,1,355.9076,0,0,0,0,1,stimuli/bead_y.PNG,stimuli/blank.jpg,stimuli/blank.jpg,stimuli/blank.jpg,stimuli/blank.jpg,1,2,up
,,,1A,A,2024-02-16_14h44.12.299,Fish Game,2023.1.3,MacIntel,59.97361161,justicestudyid,justicesessionid,justiceprolificid,,,,,,,,,,,,,,,2,,,,,,,,,,,,,,366.634,1,up,1.1525,,1,1.5,369.3144,0,1,1,1,1,stimuli/bead_y.PNG,stimuli/bead_y.PNG,stimuli/blank.jpg,stimuli/blank.jpg,stimuli/blank.jpg,1,2,up
,,,1A,A,2024-02-16_14h44.12.299,Fish Game,2023.1.3,MacIntel,59.97361161,justicestudyid,justicesessionid,justiceprolificid,,,,,,,,,,,,,,,3,,,,,,,,,,,,,,369.8155,2,up,1.3186,,1,1.5,372.6682,0,2,2,2,1,stimuli/bead_b.PNG,stimuli/bead_y.PNG,stimuli/bead_y.PNG,stimuli/blank.jpg,stimuli/blank.jpg,1,2,up
,,,1A,A,2024-02-16_14h44.12.299,Fish Game,2023.1.3,MacIntel,59.97361161,justicestudyid,justicesessionid,justiceprolificid,,,,,,,,,,,,,,,4,,,,,,,,,,,,,,373.1692,3,up,0.783,,1,0.5,374.4824,0,3,3,3,1,stimuli/bead_y.PNG,stimuli/bead_b.PNG,stimuli/bead_y.PNG,stimuli/bead_y.PNG,stimuli/blank.jpg,1,2,up
,,,1A,A,2024-02-16_14h44.12.299,Fish Game,2023.1.3,MacIntel,59.97361161,justicestudyid,justicesessionid,justiceprolificid,,,,,,,,,,,,,,,5,,,,,,,,,,,,,,374.9866,4,up,0.6326,,1,1.5,377.1529,0,4,4,4,1,stimuli/bead_y.PNG,stimuli/bead_y.PNG,stimuli/bead_b.PNG,stimuli/bead_y.PNG,stimuli/bead_y.PNG,1,2,up
,,,1A,A,2024-02-16_14h44.12.299,Fish Game,2023.1.3,MacIntel,59.97361161,justicestudyid,justicesessionid,justiceprolificid,,,,,,,,,,,,,,,6,,,,,,,,,,,,,,377.6537,5,up,0.9013,,1,0.5,379.0862,0,5,5,5,1,stimuli/bead_y.PNG,stimuli/bead_y.PNG,stimuli/bead_y.PNG,stimuli/bead_b.PNG,stimuli/bead_y.PNG,1,2,up
,,,1A,A,2024-02-16_14h44.12.299,Fish Game,2023.1.3,MacIntel,59.97361161,justicestudyid,justicesessionid,justiceprolificid,,,,,,,,,,,,,,,7,,,,,,,,,,,,,,379.5888,6,up,0.9179,,1,1.5,382.0375,0,6,6,6,1,stimuli/bead_b.PNG,stimuli/bead_y.PNG,stimuli/bead_y.PNG,stimuli/bead_y.PNG,stimuli/bead_b.PNG,1,2,up
,,,1A,A,2024-02-16_14h44.12.299,Fish Game,2023.1.3,MacIntel,59.97361161,justicestudyid,justicesessionid,justiceprolificid,,,,,,,,,,,,,,,8,,,,,,,,,,,,,,382.5402,7,up,0.9369,,1,0.5,384.0056,0,7,7,7,1,stimuli/bead_y.PNG,stimuli/bead_b.PNG,stimuli/bead_y.PNG,stimuli/bead_y.PNG,stimuli/bead_y.PNG,1,2,up
,,,1A,A,2024-02-16_14h44.12.299,Fish Game,2023.1.3,MacIntel,59.97361161,justicestudyid,justicesessionid,justiceprolificid,,,,,,,,,,,,,,,9,,,,,,,,,,,,,,384.5079,8,up,0.534,,1,1.5,386.5725,0,8,8,8,1,stimuli/bead_y.PNG,stimuli/bead_y.PNG,stimuli/bead_b.PNG,stimuli/bead_y.PNG,stimuli/bead_y.PNG,1,2,up
,,,1A,A,2024-02-16_14h44.12.299,Fish Game,2023.1.3,MacIntel,59.97361161,justicestudyid,justicesessionid,justiceprolificid,,,,,,,,,,,,,,,10,,,,,,,,,,,,,,387.0757,9,up,0.9542,,1,1.5,389.5409,0,9,9,9,1,stimuli/bead_g.PNG,stimuli/bead_y.PNG,stimuli/bead_y.PNG,stimuli/bead_b.PNG,stimuli/bead_y.PNG,1,2,up
,,,1A,A,2024-02-16_14h44.12.299,Fish Game,2023.1.3,MacIntel,59.97361161,justicestudyid,justicesessionid,justiceprolificid,,,,,,,,,,,,,,,11,,,,,,,,,,,,,,390.0419,10,up,0.7993,,1,1.5,392.3767,0,10,10,10,1,stimuli/bead_y.PNG,stimuli/bead_g.PNG,stimuli/bead_y.PNG,stimuli/bead_y.PNG,stimuli/bead_b.PNG,1,2,up
,,,1A,A,2024-02-16_14h44.12.299,Fish Game,2023.1.3,MacIntel,59.97361161,justicestudyid,justicesessionid,justiceprolificid,,,,,,,,,,,,,,,12,,,,,,,,,,,,,,392.8783,11,up,3.1007,,1,0.5,396.5117,0,11,11,11,1,stimuli/bead_g.PNG,stimuli/bead_y.PNG,stimuli/bead_g.PNG,stimuli/bead_y.PNG,stimuli/bead_y.PNG,1,2,up
,,,1A,A,2024-02-16_14h44.12.299,Fish Game,2023.1.3,MacIntel,59.97361161,justicestudyid,justicesessionid,justiceprolificid,,,,,,,,,,,,,,,13,,,,,,,,,,,,,,397.012,12,up,0.8838,,1,1,398.912,0,12,12,12,1,stimuli/bead_y.PNG,stimuli/bead_g.PNG,stimuli/bead_y.PNG,stimuli/bead_g.PNG,stimuli/bead_y.PNG,1,2,up
,,,1A,A,2024-02-16_14h44.12.299,Fish Game,2023.1.3,MacIntel,59.97361161,justicestudyid,justicesessionid,justiceprolificid,,,,,,,,,,,,,,,14,,,,,,,,,,,,,,399.4149,13,up,0.6364,,1,0.5,400.5799,0,13,13,13,1,stimuli/bead_y.PNG,stimuli/bead_y.PNG,stimuli/bead_g.PNG,stimuli/bead_y.PNG,stimuli/bead_g.PNG,1,2,up
,,,1A,A,2024-02-16_14h44.12.299,Fish Game,2023.1.3,MacIntel,59.97361161,justicestudyid,justicesessionid,justiceprolificid,,,,,,,,,,,,,,,15,,,,,,,,,,,,,,401.0797,14,up,0.5695,,1,1.5,403.1638,0,14,14,14,1,stimuli/bead_y.PNG,stimuli/bead_y.PNG,stimuli/bead_y.PNG,stimuli/bead_g.PNG,stimuli/bead_y.PNG,1,2,up
,,,1A,A,2024-02-16_14h44.12.299,Fish Game,2023.1.3,MacIntel,59.97361161,justicestudyid,justicesessionid,justiceprolificid,,,,,,,,,,,,,,,1,,,,,,,,,,,,4,1condition/mainTrials4.xlsx,408.6772,0,right,1.0838,,1,0.5,410.2846,0,0,0,0,1,stimuli/bead_g.PNG,stimuli/blank.jpg,stimuli/blank.jpg,stimuli/blank.jpg,stimuli/blank.jpg,2,3,right
,,,1A,A,2024-02-16_14h44.12.299,Fish Game,2023.1.3,MacIntel,59.97361161,justicestudyid,justicesessionid,justiceprolificid,,,,,,,,,,,,,,,2,,,,,,,,,,,,,,410.787,1,right,0.5687,,1,1,412.3698,0,1,1,1,1,stimuli/bead_g.PNG,stimuli/bead_g.PNG,stimuli/blank.jpg,stimuli/blank.jpg,stimuli/blank.jpg,2,3,right
,,,1A,A,2024-02-16_14h44.12.299,Fish Game,2023.1.3,MacIntel,59.97361161,justicestudyid,justicesessionid,justiceprolificid,,,,,,,,,,,,,,,3,,,,,,,,,,,,,,412.871,2,right,0.887,,1,1,414.7888,0,2,2,2,1,stimuli/bead_b.PNG,stimuli/bead_g.PNG,stimuli/bead_g.PNG,stimuli/blank.jpg,stimuli/blank.jpg,2,3,right
,,,1A,A,2024-02-16_14h44.12.299,Fish Game,2023.1.3,MacIntel,59.97361161,justicestudyid,justicesessionid,justiceprolificid,,,,,,,,,,,,,,,4,,,,,,,,,,,,,,415.2891,3,right,0.8525,,1,1.5,417.6708,0,3,3,3,1,stimuli/bead_g.PNG,stimuli/bead_b.PNG,stimuli/bead_g.PNG,stimuli/bead_g.PNG,stimuli/blank.jpg,2,3,right
,,,1A,A,2024-02-16_14h44.12.299,Fish Game,2023.1.3,MacIntel,59.97361161,justicestudyid,justicesessionid,justiceprolificid,,,,,,,,,,,,,,,5,,,,,,,,,,,,,,418.1727,4,right,0.7888,,1,0.5,419.4901,0,4,4,4,1,stimuli/bead_g.PNG,stimuli/bead_g.PNG,stimuli/bead_b.PNG,stimuli/bead_g.PNG,stimuli/bead_g.PNG,2,3,right
,,,1A,A,2024-02-16_14h44.12.299,Fish Game,2023.1.3,MacIntel,59.97361161,justicestudyid,justicesessionid,justiceprolificid,,,,,,,,,,,,,,,6,,,,,,,,,,,,,,419.9916,5,right,1.3831,,1,0.5,421.9082,0,5,5,5,1,stimuli/bead_y.PNG,stimuli/bead_g.PNG,stimuli/bead_g.PNG,stimuli/bead_b.PNG,stimuli/bead_g.PNG,2,3,right
,,,1A,A,2024-02-16_14h44.12.299,Fish Game,2023.1.3,MacIntel,59.97361161,justicestudyid,justicesessionid,justiceprolificid,,,,,,,,,,,,,,,7,,,,,,,,,,,,,,422.4073,6,right,0.7152,,1,0.5,423.6569,0,6,6,6,1,stimuli/bead_g.PNG,stimuli/bead_y.PNG,stimuli/bead_g.PNG,stimuli/bead_g.PNG,stimuli/bead_b.PNG,2,3,right
,,,1A,A,2024-02-16_14h44.12.299,Fish Game,2023.1.3,MacIntel,59.97361161,justicestudyid,justicesessionid,justiceprolificid,,,,,,,,,,,,,,,8,,,,,,,,,,,,,,424.1579,7,right,1.2682,,0,1,426.4431,0,7,7,7,1,stimuli/bead_y.PNG,stimuli/bead_g.PNG,stimuli/bead_y.PNG,stimuli/bead_g.PNG,stimuli/bead_g.PNG,1,2,up
,,,1A,A,2024-02-16_14h44.12.299,Fish Game,2023.1.3,MacIntel,59.97361161,justicestudyid,justicesessionid,justiceprolificid,,,,,,,,,,,,,,,9,,,,,,,,,,,,,,426.9448,8,up,0.7031,,1,1.5,429.1782,0,8,8,8,1,stimuli/bead_y.PNG,stimuli/bead_y.PNG,stimuli/bead_g.PNG,stimuli/bead_y.PNG,stimuli/bead_g.PNG,1,2,up
,,,1A,A,2024-02-16_14h44.12.299,Fish Game,2023.1.3,MacIntel,59.97361161,justicestudyid,justicesessionid,justiceprolificid,,,,,,,,,,,,,,,10,,,,,,,,,,,,,,429.6777,9,up,1.5851,,1,1.5,432.7779,0,9,9,9,1,stimuli/bead_g.PNG,stimuli/bead_y.PNG,stimuli/bead_y.PNG,stimuli/bead_g.PNG,stimuli/bead_y.PNG,1,2,up
,,,1A,A,2024-02-16_14h44.12.299,Fish Game,2023.1.3,MacIntel,59.97361161,justicestudyid,justicesessionid,justiceprolificid,,,,,,,,,,,,,,,11,,,,,,,,,,,,,,433.2815,10,up,0.7342,,1,0.5,434.5452,0,10,10,10,1,stimuli/bead_y.PNG,stimuli/bead_g.PNG,stimuli/bead_y.PNG,stimuli/bead_y.PNG,stimuli/bead_g.PNG,1,2,up
,,,1A,A,2024-02-16_14h44.12.299,Fish Game,2023.1.3,MacIntel,59.97361161,justicestudyid,justicesessionid,justiceprolificid,,,,,,,,,,,,,,,12,,,,,,,,,,,,,,435.0463,11,up,0.5693,,1,1.5,437.1298,0,11,11,11,1,stimuli/bead_y.PNG,stimuli/bead_y.PNG,stimuli/bead_g.PNG,stimuli/bead_y.PNG,stimuli/bead_y.PNG,1,2,up
,,,1A,A,2024-02-16_14h44.12.299,Fish Game,2023.1.3,MacIntel,59.97361161,justicestudyid,justicesessionid,justiceprolificid,,,,,,,,,,,,,,,13,,,,,,,,,,,,,,437.6312,12,up,1.0514,,1,1,439.6976,0,12,12,12,1,stimuli/bead_b.PNG,stimuli/bead_y.PNG,stimuli/bead_y.PNG,stimuli/bead_g.PNG,stimuli/bead_y.PNG,1,2,up
,,,1A,A,2024-02-16_14h44.12.299,Fish Game,2023.1.3,MacIntel,59.97361161,justicestudyid,justicesessionid,justiceprolificid,,,,,,,,,,,,,,,14,,,,,,,,,,,,,,440.2001,13,up,0.5537,,1,1,441.7835,0,13,13,13,1,stimuli/bead_y.PNG,stimuli/bead_b.PNG,stimuli/bead_y.PNG,stimuli/bead_y.PNG,stimuli/bead_g.PNG,1,2,up
,,,1A,A,2024-02-16_14h44.12.299,Fish Game,2023.1.3,MacIntel,59.97361161,justicestudyid,justicesessionid,justiceprolificid,,,,,,,,,,,,,,,15,,,,,,,,,,,,,,442.2818,14,up,0.6169,,1,0.5,443.4345,0,14,14,14,1,stimuli/bead_y.PNG,stimuli/bead_y.PNG,stimuli/bead_b.PNG,stimuli/bead_y.PNG,stimuli/bead_y.PNG,1,2,up
,,,1A,A,2024-02-16_14h44.12.299,Fish Game,2023.1.3,MacIntel,59.97361161,justicestudyid,justicesessionid,justiceprolificid,,,,,,,,,,,,,,,1,,,,,,,,,,,,5,1condition/mainTrials5.xlsx,448.9449,0,left,1.0536,,1,1,451.0208,0,0,0,0,1,stimuli/bead_b.PNG,stimuli/blank.jpg,stimuli/blank.jpg,stimuli/blank.jpg,stimuli/blank.jpg,0,1,left
,,,1A,A,2024-02-16_14h44.12.299,Fish Game,2023.1.3,MacIntel,59.97361161,justicestudyid,justicesessionid,justiceprolificid,,,,,,,,,,,,,,,2,,,,,,,,,,,,,,451.5198,1,left,0.5332,,1,1.5,453.5723,0,1,1,1,1,stimuli/bead_b.PNG,stimuli/bead_b.PNG,stimuli/blank.jpg,stimuli/blank.jpg,stimuli/blank.jpg,0,1,left
,,,1A,A,2024-02-16_14h44.12.299,Fish Game,2023.1.3,MacIntel,59.97361161,justicestudyid,justicesessionid,justiceprolificid,,,,,,,,,,,,,,,3,,,,,,,,,,,,,,454.0722,2,left,0.8664,,1,1.5,456.4714,0,2,2,2,1,stimuli/bead_y.PNG,stimuli/bead_b.PNG,stimuli/bead_b.PNG,stimuli/blank.jpg,stimuli/blank.jpg,0,1,left
,,,1A,A,2024-02-16_14h44.12.299,Fish Game,2023.1.3,MacIntel,59.97361161,justicestudyid,justicesessionid,justiceprolificid,,,,,,,,,,,,,,,4,,,,,,,,,,,,,,456.9739,3,left,0.5307,,1,1.5,459.0392,0,3,3,3,1,stimuli/bead_b.PNG,stimuli/bead_y.PNG,stimuli/bead_b.PNG,stimuli/bead_b.PNG,stimuli/blank.jpg,0,1,left
,,,1A,A,2024-02-16_14h44.12.299,Fish Game,2023.1.3,MacIntel,59.97361161,justicestudyid,justicesessionid,justiceprolificid,,,,,,,,,,,,,,,5,,,,,,,,,,,,,,459.5426,4,left,0.8172,,1,1,461.3922,0,4,4,4,1,stimuli/bead_b.PNG,stimuli/bead_b.PNG,stimuli/bead_y.PNG,stimuli/bead_b.PNG,stimuli/bead_b.PNG,0,1,left
,,,1A,A,2024-02-16_14h44.12.299,Fish Game,2023.1.3,MacIntel,59.97361161,justicestudyid,justicesessionid,justiceprolificid,,,,,,,,,,,,,,,6,,,,,,,,,,,,,,461.8935,5,left,1.3177,,0,0.5,463.7456,0,5,5,5,1,stimuli/bead_g.PNG,stimuli/bead_b.PNG,stimuli/bead_b.PNG,stimuli/bead_y.PNG,stimuli/bead_b.PNG,2,3,right
,,,1A,A,2024-02-16_14h44.12.299,Fish Game,2023.1.3,MacIntel,59.97361161,justicestudyid,justicesessionid,justiceprolificid,,,,,,,,,,,,,,,7,,,,,,,,,,,,,,464.2439,6,right,1.3342,,1,1.5,467.1101,0,6,6,6,1,stimuli/bead_g.PNG,stimuli/bead_g.PNG,stimuli/bead_b.PNG,stimuli/bead_b.PNG,stimuli/bead_y.PNG,2,2,right
,,,1A,A,2024-02-16_14h44.12.299,Fish Game,2023.1.3,MacIntel,59.97361161,justicestudyid,justicesessionid,justiceprolificid,,,,,,,,,,,,,,,8,,,,,,,,,,,,,,467.6128,7,right,1.9361,,1,1.5,471.0616,0,7,7,7,1,stimuli/bead_b.PNG,stimuli/bead_g.PNG,stimuli/bead_g.PNG,stimuli/bead_b.PNG,stimuli/bead_b.PNG,2,2,right
,,,1A,A,2024-02-16_14h44.12.299,Fish Game,2023.1.3,MacIntel,59.97361161,justicestudyid,justicesessionid,justiceprolificid,,,,,,,,,,,,,,,9,,,,,,,,,,,,,,471.563,8,right,0.8657,,1,0.5,472.9484,0,8,8,8,1,stimuli/bead_g.PNG,stimuli/bead_b.PNG,stimuli/bead_g.PNG,stimuli/bead_g.PNG,stimuli/bead_b.PNG,2,2,right
,,,1A,A,2024-02-16_14h44.12.299,Fish Game,2023.1.3,MacIntel,59.97361161,justicestudyid,justicesessionid,justiceprolificid,,,,,,,,,,,,,,,10,,,,,,,,,,,,,,473.4475,9,right,0.8182,,1,0.5,474.7823,0,9,9,9,1,stimuli/bead_b.PNG,stimuli/bead_g.PNG,stimuli/bead_b.PNG,stimuli/bead_g.PNG,stimuli/bead_g.PNG,2,2,right
,,,1A,A,2024-02-16_14h44.12.299,Fish Game,2023.1.3,MacIntel,59.97361161,justicestudyid,justicesessionid,justiceprolificid,,,,,,,,,,,,,,,11,,,,,,,,,,,,,,475.2834,10,right,0.4681,,1,1,476.7651,0,10,10,10,1,stimuli/bead_g.PNG,stimuli/bead_b.PNG,stimuli/bead_g.PNG,stimuli/bead_b.PNG,stimuli/bead_g.PNG,2,2,right
,,,1A,A,2024-02-16_14h44.12.299,Fish Game,2023.1.3,MacIntel,59.97361161,justicestudyid,justicesessionid,justiceprolificid,,,,,,,,,,,,,,,12,,,,,,,,,,,,,,477.265,11,right,0.4518,,1,1.5,479.2326,0,11,11,11,1,stimuli/bead_g.PNG,stimuli/bead_g.PNG,stimuli/bead_b.PNG,stimuli/bead_g.PNG,stimuli/bead_b.PNG,2,2,right
,,,1A,A,2024-02-16_14h44.12.299,Fish Game,2023.1.3,MacIntel,59.97361161,justicestudyid,justicesessionid,justiceprolificid,,,,,,,,,,,,,,,13,,,,,,,,,,,,,,479.7332,12,right,0.5033,,1,1,481.2511,0,12,12,12,1,stimuli/bead_g.PNG,stimuli/bead_g.PNG,stimuli/bead_g.PNG,stimuli/bead_b.PNG,stimuli/bead_g.PNG,2,3,right
,,,1A,A,2024-02-16_14h44.12.299,Fish Game,2023.1.3,MacIntel,59.97361161,justicestudyid,justicesessionid,justiceprolificid,,,,,,,,,,,,,,,14,,,,,,,,,,,,,,481.7526,13,right,0.8834,,1,1,483.668,0,13,13,13,1,stimuli/bead_y.PNG,stimuli/bead_g.PNG,stimuli/bead_g.PNG,stimuli/bead_g.PNG,stimuli/bead_b.PNG,2,3,right
,,,1A,A,2024-02-16_14h44.12.299,Fish Game,2023.1.3,MacIntel,59.97361161,justicestudyid,justicesessionid,justiceprolificid,,,,,,,,,,,,,,,15,,,,,,,,,,,,,,484.1683,14,right,0.5824,,1,1,485.7684,0,14,14,14,1,stimuli/bead_g.PNG,stimuli/bead_y.PNG,stimuli/bead_g.PNG,stimuli/bead_g.PNG,stimuli/bead_g.PNG,2,3,right
,,,1A,A,2024-02-16_14h44.12.299,Fish Game,2023.1.3,MacIntel,59.97361161,justicestudyid,justicesessionid,justiceprolificid,,,,,,,,,,,,,,,1,,,,,,,,,,,,6,1condition/mainTrials6.xlsx,491.28,0,left,0.7858,,0,1.5,493.5895,0,0,0,0,1,stimuli/bead_b.PNG,stimuli/blank.jpg,stimuli/blank.jpg,stimuli/blank.jpg,stimuli/blank.jpg,1,2,up
,,,1A,A,2024-02-16_14h44.12.299,Fish Game,2023.1.3,MacIntel,59.97361161,justicestudyid,justicesessionid,justiceprolificid,,,,,,,,,,,,,,,2,,,,,,,,,,,,,,494.0897,1,left,0.7515,,0,1.5,496.359,0,1,1,1,1,stimuli/bead_y.PNG,stimuli/bead_b.PNG,stimuli/blank.jpg,stimuli/blank.jpg,stimuli/blank.jpg,1,2,up
,,,1A,A,2024-02-16_14h44.12.299,Fish Game,2023.1.3,MacIntel,59.97361161,justicestudyid,justicesessionid,justiceprolificid,,,,,,,,,,,,,,,3,,,,,,,,,,,,,,496.8589,2,up,2.0695,,1,1,499.9432,0,2,2,2,1,stimuli/bead_y.PNG,stimuli/bead_y.PNG,stimuli/bead_b.PNG,stimuli/blank.jpg,stimuli/blank.jpg,1,2,up
,,,1A,A,2024-02-16_14h44.12.299,Fish Game,2023.1.3,MacIntel,59.97361161,justicestudyid,justicesessionid,justiceprolificid,,,,,,,,,,,,,,,4,,,,,,,,,,,,,,500.4439,3,up,0.5548,,1,0.5,501.5262,0,3,3,3,1,stimuli/bead_y.PNG,stimuli/bead_y.PNG,stimuli/bead_y.PNG,stimuli/bead_b.PNG,stimuli/blank.jpg,1,2,up
,,,1A,A,2024-02-16_14h44.12.299,Fish Game,2023.1.3,MacIntel,59.97361161,justicestudyid,justicesessionid,justiceprolificid,,,,,,,,,,,,,,,5,,,,,,,,,,,,,,502.0289,4,up,0.8975,,0,1,503.9608,0,4,4,4,1,stimuli/bead_g.PNG,stimuli/bead_y.PNG,stimuli/bead_y.PNG,stimuli/bead_y.PNG,stimuli/bead_b.PNG,2,3,right
,,,1A,A,2024-02-16_14h44.12.299,Fish Game,2023.1.3,MacIntel,59.97361161,justicestudyid,justicesessionid,justiceprolificid,,,,,,,,,,,,,,,6,,,,,,,,,,,,,,504.4647,5,up,1.5198,,0,0.5,506.5117,0,5,5,5,1,stimuli/bead_g.PNG,stimuli/bead_g.PNG,stimuli/bead_y.PNG,stimuli/bead_y.PNG,stimuli/bead_y.PNG,2,3,right
,,,1A,A,2024-02-16_14h44.12.299,Fish Game,2023.1.3,MacIntel,59.97361161,justicestudyid,justicesessionid,justiceprolificid,,,,,,,,,,,,,,,7,,,,,,,,,,,,,,507.0127,6,up,0.5831,,0,1,508.616,0,6,6,6,1,stimuli/bead_y.PNG,stimuli/bead_g.PNG,stimuli/bead_g.PNG,stimuli/bead_y.PNG,stimuli/bead_y.PNG,2,3,right
,,,1A,A,2024-02-16_14h44.12.299,Fish Game,2023.1.3,MacIntel,59.97361161,justicestudyid,justicesessionid,justiceprolificid,,,,,,,,,,,,,,,8,,,,,,,,,,,,,,509.115,7,up,0.8693,,0,0.5,510.4973,0,7,7,7,1,stimuli/bead_g.PNG,stimuli/bead_y.PNG,stimuli/bead_g.PNG,stimuli/bead_g.PNG,stimuli/bead_y.PNG,2,3,right
,,,1A,A,2024-02-16_14h44.12.299,Fish Game,2023.1.3,MacIntel,59.97361161,justicestudyid,justicesessionid,justiceprolificid,,,,,,,,,,,,,,,9,,,,,,,,,,,,,,510.9978,8,right,0.6854,,1,1,512.6986,0,8,8,8,1,stimuli/bead_g.PNG,stimuli/bead_g.PNG,stimuli/bead_y.PNG,stimuli/bead_g.PNG,stimuli/bead_g.PNG,2,3,right
,,,1A,A,2024-02-16_14h44.12.299,Fish Game,2023.1.3,MacIntel,59.97361161,justicestudyid,justicesessionid,justiceprolificid,,,,,,,,,,,,,,,10,,,,,,,,,,,,,,513.2016,9,right,0.2353,,1,1,514.4663,0,9,9,9,1,stimuli/bead_g.PNG,stimuli/bead_g.PNG,stimuli/bead_g.PNG,stimuli/bead_y.PNG,stimuli/bead_g.PNG,2,3,right
,,,1A,A,2024-02-16_14h44.12.299,Fish Game,2023.1.3,MacIntel,59.97361161,justicestudyid,justicesessionid,justiceprolificid,,,,,,,,,,,,,,,11,,,,,,,,,,,,,,514.9673,10,right,0.951,,0,1,516.9361,0,10,10,10,1,stimuli/bead_y.PNG,stimuli/bead_g.PNG,stimuli/bead_g.PNG,stimuli/bead_g.PNG,stimuli/bead_y.PNG,1,2,up
,,,1A,A,2024-02-16_14h44.12.299,Fish Game,2023.1.3,MacIntel,59.97361161,justicestudyid,justicesessionid,justiceprolificid,,,,,,,,,,,,,,,12,,,,,,,,,,,,,,517.4336,11,right,0.9015,,0,1,519.3513,0,11,11,11,1,stimuli/bead_b.PNG,stimuli/bead_y.PNG,stimuli/bead_g.PNG,stimuli/bead_g.PNG,stimuli/bead_g.PNG,1,2,up
,,,1A,A,2024-02-16_14h44.12.299,Fish Game,2023.1.3,MacIntel,59.97361161,justicestudyid,justicesessionid,justiceprolificid,,,,,,,,,,,,,,,13,,,,,,,,,,,,,,519.8546,12,right,1.6003,,0,0.5,521.9693,0,12,12,12,1,stimuli/bead_y.PNG,stimuli/bead_b.PNG,stimuli/bead_y.PNG,stimuli/bead_g.PNG,stimuli/bead_g.PNG,1,2,up
,,,1A,A,2024-02-16_14h44.12.299,Fish Game,2023.1.3,MacIntel,59.97361161,justicestudyid,justicesessionid,justiceprolificid,,,,,,,,,,,,,,,14,,,,,,,,,,,,,,522.4705,13,up,0.8344,,1,1.5,524.8387,0,13,13,13,1,stimuli/bead_y.PNG,stimuli/bead_y.PNG,stimuli/bead_b.PNG,stimuli/bead_y.PNG,stimuli/bead_g.PNG,1,2,up
,,,1A,A,2024-02-16_14h44.12.299,Fish Game,2023.1.3,MacIntel,59.97361161,justicestudyid,justicesessionid,justiceprolificid,,,,,,,,,,,,,,,15,,,,,,,,,,,,,,525.3387,14,up,0.5018,,1,1.5,527.3721,0,14,14,14,1,stimuli/bead_y.PNG,stimuli/bead_y.PNG,stimuli/bead_y.PNG,stimuli/bead_b.PNG,stimuli/bead_y.PNG,1,2,up
,,,1A,A,2024-02-16_14h44.12.299,Fish Game,2023.1.3,MacIntel,59.97361161,justicestudyid,justicesessionid,justiceprolificid,,,,,,,,,,,,,,,1,,,,,,,,,,,,7,1condition/mainTrials7.xlsx,532.8833,0,up,0.8358,,1,0.5,534.2426,0,0,0,0,1,stimuli/bead_y.PNG,stimuli/blank.jpg,stimuli/blank.jpg,stimuli/blank.jpg,stimuli/blank.jpg,1,2,up
,,,1A,A,2024-02-16_14h44.12.299,Fish Game,2023.1.3,MacIntel,59.97361161,justicestudyid,justicesessionid,justiceprolificid,,,,,,,,,,,,,,,2,,,,,,,,,,,,,,534.7424,1,up,0.7018,,1,0.5,535.9615,0,1,1,1,1,stimuli/bead_y.PNG,stimuli/bead_y.PNG,stimuli/blank.jpg,stimuli/blank.jpg,stimuli/blank.jpg,1,2,up
,,,1A,A,2024-02-16_14h44.12.299,Fish Game,2023.1.3,MacIntel,59.97361161,justicestudyid,justicesessionid,justiceprolificid,,,,,,,,,,,,,,,3,,,,,,,,,,,,,,536.4606,2,up,1.3511,,1,0.5,538.3269,0,2,2,2,1,stimuli/bead_g.PNG,stimuli/bead_y.PNG,stimuli/bead_y.PNG,stimuli/blank.jpg,stimuli/blank.jpg,1,2,up
,,,1A,A,2024-02-16_14h44.12.299,Fish Game,2023.1.3,MacIntel,59.97361161,justicestudyid,justicesessionid,justiceprolificid,,,,,,,,,,,,,,,4,,,,,,,,,,,,,,538.829,3,up,0.6344,,1,0.5,539.9947,0,3,3,3,1,stimuli/bead_y.PNG,stimuli/bead_g.PNG,stimuli/bead_y.PNG,stimuli/bead_y.PNG,stimuli/blank.jpg,1,2,up
,,,1A,A,2024-02-16_14h44.12.299,Fish Game,2023.1.3,MacIntel,59.97361161,justicestudyid,justicesessionid,justiceprolificid,,,,,,,,,,,,,,,5,,,,,,,,,,,,,,540.4951,4,up,0.4699,,1,0.5,541.4785,0,4,4,4,1,stimuli/bead_y.PNG,stimuli/bead_y.PNG,stimuli/bead_g.PNG,stimuli/bead_y.PNG,stimuli/bead_y.PNG,1,2,up
,,,1A,A,2024-02-16_14h44.12.299,Fish Game,2023.1.3,MacIntel,59.97361161,justicestudyid,justicesessionid,justiceprolificid,,,,,,,,,,,,,,,6,,,,,,,,,,,,,,541.9792,5,up,0.367,,1,1,543.3649,0,5,5,5,1,stimuli/bead_y.PNG,stimuli/bead_y.PNG,stimuli/bead_y.PNG,stimuli/bead_g.PNG,stimuli/bead_y.PNG,1,2,up
,,,1A,A,2024-02-16_14h44.12.299,Fish Game,2023.1.3,MacIntel,59.97361161,justicestudyid,justicesessionid,justiceprolificid,,,,,,,,,,,,,,,7,,,,,,,,,,,,,,543.8659,6,up,0.7515,,1,1.5,546.1317,0,6,6,6,1,stimuli/bead_b.PNG,stimuli/bead_y.PNG,stimuli/bead_y.PNG,stimuli/bead_y.PNG,stimuli/bead_g.PNG,1,2,up
,,,1A,A,2024-02-16_14h44.12.299,Fish Game,2023.1.3,MacIntel,59.97361161,justicestudyid,justicesessionid,justiceprolificid,,,,,,,,,,,,,,,8,,,,,,,,,,,,,,546.6326,7,up,0.6353,,1,1,548.3005,0,7,7,7,1,stimuli/bead_y.PNG,stimuli/bead_b.PNG,stimuli/bead_y.PNG,stimuli/bead_y.PNG,stimuli/bead_y.PNG,1,2,up
,,,1A,A,2024-02-16_14h44.12.299,Fish Game,2023.1.3,MacIntel,59.97361161,justicestudyid,justicesessionid,justiceprolificid,,,,,,,,,,,,,,,9,,,,,,,,,,,,,,548.8025,8,up,0.685,,0,0.5,550.0169,0,8,8,8,1,stimuli/bead_y.PNG,stimuli/bead_y.PNG,stimuli/bead_b.PNG,stimuli/bead_y.PNG,stimuli/bead_y.PNG,1,2,right
,,,1A,A,2024-02-16_14h44.12.299,Fish Game,2023.1.3,MacIntel,59.97361161,justicestudyid,justicesessionid,justiceprolificid,,,,,,,,,,,,,,,10,,,,,,,,,,,,,,550.5198,9,up,0.8519,,0,1.5,552.9014,0,9,9,9,1,stimuli/bead_g.PNG,stimuli/bead_y.PNG,stimuli/bead_y.PNG,stimuli/bead_b.PNG,stimuli/bead_y.PNG,2,3,right
,,,1A,A,2024-02-16_14h44.12.299,Fish Game,2023.1.3,MacIntel,59.97361161,justicestudyid,justicesessionid,justiceprolificid,,,,,,,,,,,,,,,11,,,,,,,,,,,,,,553.4011,10,right,0.9022,,1,1,555.3206,0,10,10,10,1,stimuli/bead_g.PNG,stimuli/bead_g.PNG,stimuli/bead_y.PNG,stimuli/bead_y.PNG,stimuli/bead_b.PNG,2,3,right
,,,1A,A,2024-02-16_14h44.12.299,Fish Game,2023.1.3,MacIntel,59.97361161,justicestudyid,justicesessionid,justiceprolificid,,,,,,,,,,,,,,,12,,,,,,,,,,,,,,555.8205,11,right,1.4011,,1,1,558.2563,0,11,11,11,1,stimuli/bead_y.PNG,stimuli/bead_g.PNG,stimuli/bead_g.PNG,stimuli/bead_y.PNG,stimuli/bead_y.PNG,2,3,right
,,,1A,A,2024-02-16_14h44.12.299,Fish Game,2023.1.3,MacIntel,59.97361161,justicestudyid,justicesessionid,justiceprolificid,,,,,,,,,,,,,,,13,,,,,,,,,,,,,,558.7567,12,right,0.5473,,1,1.5,560.8328,0,12,12,12,1,stimuli/bead_g.PNG,stimuli/bead_y.PNG,stimuli/bead_g.PNG,stimuli/bead_g.PNG,stimuli/bead_y.PNG,2,3,right
,,,1A,A,2024-02-16_14h44.12.299,Fish Game,2023.1.3,MacIntel,59.97361161,justicestudyid,justicesessionid,justiceprolificid,,,,,,,,,,,,,,,14,,,,,,,,,,,,,,561.3231,13,right,0.583,,1,1,562.924,0,13,13,13,1,stimuli/bead_g.PNG,stimuli/bead_g.PNG,stimuli/bead_y.PNG,stimuli/bead_g.PNG,stimuli/bead_g.PNG,2,3,right
,,,1A,A,2024-02-16_14h44.12.299,Fish Game,2023.1.3,MacIntel,59.97361161,justicestudyid,justicesessionid,justiceprolificid,,,,,,,,,,,,,,,15,,,,,,,,,,,,,,563.424,14,right,0.4521,,1,1.5,565.4075,0,14,14,14,1,stimuli/bead_g.PNG,stimuli/bead_g.PNG,stimuli/bead_g.PNG,stimuli/bead_y.PNG,stimuli/bead_g.PNG,2,3,right
,,,1A,A,2024-02-16_14h44.12.299,Fish Game,2023.1.3,MacIntel,59.97361161,justicestudyid,justicesessionid,justiceprolificid,,,,,,,,,,,,,,,1,,,,,,,,,,,,8,1condition/mainTrials8.xlsx,570.9169,0,up,1.5497,,0,1.5,573.994,0,0,0,0,1,stimuli/bead_y.PNG,stimuli/blank.jpg,stimuli/blank.jpg,stimuli/blank.jpg,stimuli/blank.jpg,0,1,left
,,,1A,A,2024-02-16_14h44.12.299,Fish Game,2023.1.3,MacIntel,59.97361161,justicestudyid,justicesessionid,justiceprolificid,,,,,,,,,,,,,,,2,,,,,,,,,,,,,,574.4972,1,up,1.2137,,0,1.5,577.229,0,1,1,1,1,stimuli/bead_b.PNG,stimuli/bead_y.PNG,stimuli/blank.jpg,stimuli/blank.jpg,stimuli/blank.jpg,0,1,left
,,,1A,A,2024-02-16_14h44.12.299,Fish Game,2023.1.3,MacIntel,59.97361161,justicestudyid,justicesessionid,justiceprolificid,,,,,,,,,,,,,,,3,,,,,,,,,,,,,,577.729,2,up,2.6672,,0,0.5,580.9152,0,2,2,2,1,stimuli/bead_g.PNG,stimuli/bead_b.PNG,stimuli/bead_y.PNG,stimuli/blank.jpg,stimuli/blank.jpg,0,1,left
,,,1A,A,2024-02-16_14h44.12.299,Fish Game,2023.1.3,MacIntel,59.97361161,justicestudyid,justicesessionid,justiceprolificid,,,,,,,,,,,,,,,4,,,,,,,,,,,,,,581.4145,3,left,1.0336,,1,0.5,582.9661,0,3,3,3,1,stimuli/bead_b.PNG,stimuli/bead_g.PNG,stimuli/bead_b.PNG,stimuli/bead_y.PNG,stimuli/blank.jpg,0,1,left
,,,1A,A,2024-02-16_14h44.12.299,Fish Game,2023.1.3,MacIntel,59.97361161,justicestudyid,justicesessionid,justiceprolificid,,,,,,,,,,,,,,,5,,,,,,,,,,,,,,583.4654,4,left,0.6025,,1,1,585.0836,0,4,4,4,1,stimuli/bead_b.PNG,stimuli/bead_b.PNG,stimuli/bead_g.PNG,stimuli/bead_b.PNG,stimuli/bead_y.PNG,0,1,left
,,,1A,A,2024-02-16_14h44.12.299,Fish Game,2023.1.3,MacIntel,59.97361161,justicestudyid,justicesessionid,justiceprolificid,,,,,,,,,,,,,,,6,,,,,,,,,,,,,,585.5846,5,left,0.6344,,1,0.5,586.7335,0,5,5,5,1,stimuli/bead_b.PNG,stimuli/bead_b.PNG,stimuli/bead_b.PNG,stimuli/bead_g.PNG,stimuli/bead_b.PNG,0,1,left
,,,1A,A,2024-02-16_14h44.12.299,Fish Game,2023.1.3,MacIntel,59.97361161,justicestudyid,justicesessionid,justiceprolificid,,,,,,,,,,,,,,,7,,,,,,,,,,,,,,587.2341,6,left,1.802,,1,0.5,589.5688,0,6,6,6,1,stimuli/bead_g.PNG,stimuli/bead_b.PNG,stimuli/bead_b.PNG,stimuli/bead_b.PNG,stimuli/bead_g.PNG,0,1,left
,,,1A,A,2024-02-16_14h44.12.299,Fish Game,2023.1.3,MacIntel,59.97361161,justicestudyid,justicesessionid,justiceprolificid,,,,,,,,,,,,,,,8,,,,,,,,,,,,,,590.0696,7,left,1.1518,,1,0.5,591.7529,0,7,7,7,1,stimuli/bead_b.PNG,stimuli/bead_g.PNG,stimuli/bead_b.PNG,stimuli/bead_b.PNG,stimuli/bead_b.PNG,0,1,left
,,,1A,A,2024-02-16_14h44.12.299,Fish Game,2023.1.3,MacIntel,59.97361161,justicestudyid,justicesessionid,justiceprolificid,,,,,,,,,,,,,,,9,,,,,,,,,,,,,,592.2538,8,left,1.4652,,1,1,594.7371,0,8,8,8,1,stimuli/bead_y.PNG,stimuli/bead_b.PNG,stimuli/bead_g.PNG,stimuli/bead_b.PNG,stimuli/bead_b.PNG,0,1,left
,,,1A,A,2024-02-16_14h44.12.299,Fish Game,2023.1.3,MacIntel,59.97361161,justicestudyid,justicesessionid,justiceprolificid,,,,,,,,,,,,,,,10,,,,,,,,,,,,,,595.2377,9,left,0.7176,,1,1,596.9742,0,9,9,9,1,stimuli/bead_b.PNG,stimuli/bead_y.PNG,stimuli/bead_b.PNG,stimuli/bead_g.PNG,stimuli/bead_b.PNG,0,1,left
,,,1A,A,2024-02-16_14h44.12.299,Fish Game,2023.1.3,MacIntel,59.97361161,justicestudyid,justicesessionid,justiceprolificid,,,,,,,,,,,,,,,11,,,,,,,,,,,,,,597.4767,10,left,0.8364,,1,1.5,599.84,0,10,10,10,1,stimuli/bead_b.PNG,stimuli/bead_b.PNG,stimuli/bead_y.PNG,stimuli/bead_b.PNG,stimuli/bead_g.PNG,0,1,left
,,,1A,A,2024-02-16_14h44.12.299,Fish Game,2023.1.3,MacIntel,59.97361161,justicestudyid,justicesessionid,justiceprolificid,,,,,,,,,,,,,,,12,,,,,,,,,,,,,,600.3414,11,left,1.067,,0,1,602.4406,0,11,11,11,1,stimuli/bead_y.PNG,stimuli/bead_b.PNG,stimuli/bead_b.PNG,stimuli/bead_y.PNG,stimuli/bead_b.PNG,1,2,up
,,,1A,A,2024-02-16_14h44.12.299,Fish Game,2023.1.3,MacIntel,59.97361161,justicestudyid,justicesessionid,justiceprolificid,,,,,,,,,,,,,,,13,,,,,,,,,,,,,,602.9443,12,up,0.9392,,1,1,604.9091,0,12,12,12,1,stimuli/bead_y.PNG,stimuli/bead_y.PNG,stimuli/bead_b.PNG,stimuli/bead_b.PNG,stimuli/bead_y.PNG,1,2,up
,,,1A,A,2024-02-16_14h44.12.299,Fish Game,2023.1.3,MacIntel,59.97361161,justicestudyid,justicesessionid,justiceprolificid,,,,,,,,,,,,,,,14,,,,,,,,,,,,,,605.4106,13,up,0.5817,,1,1.5,607.5263,0,13,13,13,1,stimuli/bead_y.PNG,stimuli/bead_y.PNG,stimuli/bead_y.PNG,stimuli/bead_b.PNG,stimuli/bead_b.PNG,1,2,up
,,,1A,A,2024-02-16_14h44.12.299,Fish Game,2023.1.3,MacIntel,59.97361161,justicestudyid,justicesessionid,justiceprolificid,,,,,,,,,,,,,,,15,,,,,,,,,,,,,,608.0285,14,up,0.8346,,1,0.5,609.3943,0,14,14,14,1,stimuli/bead_g.PNG,stimuli/bead_y.PNG,stimuli/bead_y.PNG,stimuli/bead_y.PNG,stimuli/bead_b.PNG,1,2,up
,,,1A,A,2024-02-16_14h44.12.299,Fish Game,2023.1.3,MacIntel,59.97361161,justicestudyid,justicesessionid,justiceprolificid,,,,,,,,,,,,,,,1,,,,,,,,,,,,9,1condition/mainTrials9.xlsx,614.9043,0,right,1.3014,,1,0.5,616.7309,0,0,0,0,1,stimuli/bead_g.PNG,stimuli/blank.jpg,stimuli/blank.jpg,stimuli/blank.jpg,stimuli/blank.jpg,2,3,right
,,,1A,A,2024-02-16_14h44.12.299,Fish Game,2023.1.3,MacIntel,59.97361161,justicestudyid,justicesessionid,justiceprolificid,,,,,,,,,,,,,,,2,,,,,,,,,,,,,,617.2314,1,right,0.45,,1,1.5,619.2014,0,1,1,1,1,stimuli/bead_g.PNG,stimuli/bead_g.PNG,stimuli/blank.jpg,stimuli/blank.jpg,stimuli/blank.jpg,2,3,right
,,,1A,A,2024-02-16_14h44.12.299,Fish Game,2023.1.3,MacIntel,59.97361161,justicestudyid,justicesessionid,justiceprolificid,,,,,,,,,,,,,,,3,,,,,,,,,,,,,,619.6997,2,right,0.6878,,1,1.5,621.9018,0,2,2,2,1,stimuli/bead_b.PNG,stimuli/bead_g.PNG,stimuli/bead_g.PNG,stimuli/blank.jpg,stimuli/blank.jpg,2,3,right
,,,1A,A,2024-02-16_14h44.12.299,Fish Game,2023.1.3,MacIntel,59.97361161,justicestudyid,justicesessionid,justiceprolificid,,,,,,,,,,,,,,,4,,,,,,,,,,,,,,622.4037,3,right,0.7838,,1,0.5,623.7198,0,3,3,3,1,stimuli/bead_g.PNG,stimuli/bead_b.PNG,stimuli/bead_g.PNG,stimuli/bead_g.PNG,stimuli/blank.jpg,2,3,right
,,,1A,A,2024-02-16_14h44.12.299,Fish Game,2023.1.3,MacIntel,59.97361161,justicestudyid,justicesessionid,justiceprolificid,,,,,,,,,,,,,,,5,,,,,,,,,,,,,,624.2212,4,right,0.5829,,1,0.5,625.3362,0,4,4,4,1,stimuli/bead_g.PNG,stimuli/bead_g.PNG,stimuli/bead_b.PNG,stimuli/bead_g.PNG,stimuli/bead_g.PNG,2,3,right
,,,1A,A,2024-02-16_14h44.12.299,Fish Game,2023.1.3,MacIntel,59.97361161,justicestudyid,justicesessionid,justiceprolificid,,,,,,,,,,,,,,,6,,,,,,,,,,,,,,625.8385,5,right,0.7298,,1,1,627.6037,0,5,5,5,1,stimuli/bead_b.PNG,stimuli/bead_g.PNG,stimuli/bead_g.PNG,stimuli/bead_b.PNG,stimuli/bead_g.PNG,2,3,right
,,,1A,A,2024-02-16_14h44.12.299,Fish Game,2023.1.3,MacIntel,59.97361161,justicestudyid,justicesessionid,justiceprolificid,,,,,,,,,,,,,,,7,,,,,,,,,,,,,,628.1046,6,right,0.7515,,1,0.5,629.3875,0,6,6,6,1,stimuli/bead_g.PNG,stimuli/bead_b.PNG,stimuli/bead_g.PNG,stimuli/bead_g.PNG,stimuli/bead_b.PNG,2,3,right
,,,1A,A,2024-02-16_14h44.12.299,Fish Game,2023.1.3,MacIntel,59.97361161,justicestudyid,justicesessionid,justiceprolificid,,,,,,,,,,,,,,,8,,,,,,,,,,,,,,629.888,7,right,0.7336,,1,0.5,631.1377,0,7,7,7,1,stimuli/bead_g.PNG,stimuli/bead_g.PNG,stimuli/bead_b.PNG,stimuli/bead_g.PNG,stimuli/bead_g.PNG,2,3,right
,,,1A,A,2024-02-16_14h44.12.299,Fish Game,2023.1.3,MacIntel,59.97361161,justicestudyid,justicesessionid,justiceprolificid,,,,,,,,,,,,,,,9,,,,,,,,,,,,,,631.6405,8,right,0.7182,,0,1.5,633.8907,0,8,8,8,1,stimuli/bead_b.PNG,stimuli/bead_g.PNG,stimuli/bead_g.PNG,stimuli/bead_b.PNG,stimuli/bead_g.PNG,0,1,left
,,,1A,A,2024-02-16_14h44.12.299,Fish Game,2023.1.3,MacIntel,59.97361161,justicestudyid,justicesessionid,justiceprolificid,,,,,,,,,,,,,,,10,,,,,,,,,,,,,,634.3908,9,right,1.5333,,0,1,636.957,0,9,9,9,1,stimuli/bead_y.PNG,stimuli/bead_b.PNG,stimuli/bead_g.PNG,stimuli/bead_g.PNG,stimuli/bead_b.PNG,0,1,left
,,,1A,A,2024-02-16_14h44.12.299,Fish Game,2023.1.3,MacIntel,59.97361161,justicestudyid,justicesessionid,justiceprolificid,,,,,,,,,,,,,,,11,,,,,,,,,,,,,,637.4593,10,left,0.9178,,1,1.5,639.8935,0,10,10,10,1,stimuli/bead_b.PNG,stimuli/bead_y.PNG,stimuli/bead_b.PNG,stimuli/bead_g.PNG,stimuli/bead_g.PNG,0,1,left
,,,1A,A,2024-02-16_14h44.12.299,Fish Game,2023.1.3,MacIntel,59.97361161,justicestudyid,justicesessionid,justiceprolificid,,,,,,,,,,,,,,,12,,,,,,,,,,,,,,640.3935,11,left,0.5833,,1,1.5,642.4943,0,11,11,11,1,stimuli/bead_b.PNG,stimuli/bead_b.PNG,stimuli/bead_y.PNG,stimuli/bead_b.PNG,stimuli/bead_g.PNG,0,1,left
,,,1A,A,2024-02-16_14h44.12.299,Fish Game,2023.1.3,MacIntel,59.97361161,justicestudyid,justicesessionid,justiceprolificid,,,,,,,,,,,,,,,13,,,,,,,,,,,,,,642.9934,12,left,0.5341,,1,1.5,645.046,0,12,12,12,1,stimuli/bead_b.PNG,stimuli/bead_b.PNG,stimuli/bead_b.PNG,stimuli/bead_y.PNG,stimuli/bead_b.PNG,0,1,left
,,,1A,A,2024-02-16_14h44.12.299,Fish Game,2023.1.3,MacIntel,59.97361161,justicestudyid,justicesessionid,justiceprolificid,,,,,,,,,,,,,,,14,,,,,,,,,,,,,,645.5481,13,left,1.0177,,1,0.5,647.0959,0,13,13,13,1,stimuli/bead_g.PNG,stimuli/bead_b.PNG,stimuli/bead_b.PNG,stimuli/bead_b.PNG,stimuli/bead_y.PNG,0,1,left
,,,1A,A,2024-02-16_14h44.12.299,Fish Game,2023.1.3,MacIntel,59.97361161,justicestudyid,justicesessionid,justiceprolificid,,,,,,,,,,,,,,,15,,,,,,,,,,,,,,647.5983,14,left,0.7503,,1,0.5,648.8828,0,14,14,14,1,stimuli/bead_b.PNG,stimuli/bead_g.PNG,stimuli/bead_b.PNG,stimuli/bead_b.PNG,stimuli/bead_b.PNG,0,1,left
,,,1A,A,2024-02-16_14h44.12.299,Fish Game,2023.1.3,MacIntel,59.97361161,justicestudyid,justicesessionid,justiceprolificid,,,,,,,,,,,,,,,1,,,,,,,,,,,,10,1condition/mainTrials10.xlsx,654.3912,0,up,2.0348,,0,0.5,656.9513,0,0,0,0,1,stimuli/bead_y.PNG,stimuli/blank.jpg,stimuli/blank.jpg,stimuli/blank.jpg,stimuli/blank.jpg,0,1,left
,,,1A,A,2024-02-16_14h44.12.299,Fish Game,2023.1.3,MacIntel,59.97361161,justicestudyid,justicesessionid,justiceprolificid,,,,,,,,,,,,,,,2,,,,,,,,,,,,,,657.4515,1,up,1.8815,,0,0.5,659.8704,0,1,1,1,1,stimuli/bead_b.PNG,stimuli/bead_y.PNG,stimuli/blank.jpg,stimuli/blank.jpg,stimuli/blank.jpg,0,1,left
,,,1A,A,2024-02-16_14h44.12.299,Fish Game,2023.1.3,MacIntel,59.97361161,justicestudyid,justicesessionid,justiceprolificid,,,,,,,,,,,,,,,3,,,,,,,,,,,,,,660.3702,2,left,1.4708,,1,1,662.8707,0,2,2,2,1,stimuli/bead_b.PNG,stimuli/bead_b.PNG,stimuli/bead_y.PNG,stimuli/blank.jpg,stimuli/blank.jpg,0,1,left
,,,1A,A,2024-02-16_14h44.12.299,Fish Game,2023.1.3,MacIntel,59.97361161,justicestudyid,justicesessionid,justiceprolificid,,,,,,,,,,,,,,,4,,,,,,,,,,,,,,663.373,3,left,0.5849,,1,1,664.9872,0,3,3,3,1,stimuli/bead_b.PNG,stimuli/bead_b.PNG,stimuli/bead_b.PNG,stimuli/bead_y.PNG,stimuli/blank.jpg,0,1,left
,,,1A,A,2024-02-16_14h44.12.299,Fish Game,2023.1.3,MacIntel,59.97361161,justicestudyid,justicesessionid,justiceprolificid,,,,,,,,,,,,,,,5,,,,,,,,,,,,,,665.4889,4,left,0.8337,,1,0.5,666.8564,0,4,4,4,1,stimuli/bead_b.PNG,stimuli/bead_b.PNG,stimuli/bead_b.PNG,stimuli/bead_b.PNG,stimuli/bead_y.PNG,0,1,left
,,,1A,A,2024-02-16_14h44.12.299,Fish Game,2023.1.3,MacIntel,59.97361161,justicestudyid,justicesessionid,justiceprolificid,,,,,,,,,,,,,,,6,,,,,,,,,,,,,,667.3554,5,left,1.0522,,1,1,669.4246,0,5,5,5,1,stimuli/bead_g.PNG,stimuli/bead_b.PNG,stimuli/bead_b.PNG,stimuli/bead_b.PNG,stimuli/bead_b.PNG,0,1,left
,,,1A,A,2024-02-16_14h44.12.299,Fish Game,2023.1.3,MacIntel,59.97361161,justicestudyid,justicesessionid,justiceprolificid,,,,,,,,,,,,,,,7,,,,,,,,,,,,,,669.9242,6,left,0.6855,,1,1,671.6268,0,6,6,6,1,stimuli/bead_b.PNG,stimuli/bead_g.PNG,stimuli/bead_b.PNG,stimuli/bead_b.PNG,stimuli/bead_b.PNG,0,1,left
,,,1A,A,2024-02-16_14h44.12.299,Fish Game,2023.1.3,MacIntel,59.97361161,justicestudyid,justicesessionid,justiceprolificid,,,,,,,,,,,,,,,8,,,,,,,,,,,,,,672.1269,7,left,0.518,,1,1.5,674.1757,0,7,7,7,1,stimuli/bead_b.PNG,stimuli/bead_b.PNG,stimuli/bead_g.PNG,stimuli/bead_b.PNG,stimuli/bead_b.PNG,0,1,left
,,,1A,A,2024-02-16_14h44.12.299,Fish Game,2023.1.3,MacIntel,59.97361161,justicestudyid,justicesessionid,justiceprolificid,,,,,,,,,,,,,,,9,,,,,,,,,,,,,,674.6755,8,left,0.8173,,1,0.5,676.0094,0,8,8,8,1,stimuli/bead_y.PNG,stimuli/bead_b.PNG,stimuli/bead_b.PNG,stimuli/bead_g.PNG,stimuli/bead_b.PNG,0,1,left
,,,1A,A,2024-02-16_14h44.12.299,Fish Game,2023.1.3,MacIntel,59.97361161,justicestudyid,justicesessionid,justiceprolificid,,,,,,,,,,,,,,,10,,,,,,,,,,,,,,676.5095,9,left,0.6363,,1,0.5,677.6604,0,9,9,9,1,stimuli/bead_b.PNG,stimuli/bead_y.PNG,stimuli/bead_b.PNG,stimuli/bead_b.PNG,stimuli/bead_g.PNG,0,1,left
,,,1A,A,2024-02-16_14h44.12.299,Fish Game,2023.1.3,MacIntel,59.97361161,justicestudyid,justicesessionid,justiceprolificid,,,,,,,,,,,,,,,11,,,,,,,,,,,,,,678.1631,10,left,0.7678,,0,1,679.9636,0,10,10,10,1,stimuli/bead_g.PNG,stimuli/bead_b.PNG,stimuli/bead_y.PNG,stimuli/bead_b.PNG,stimuli/bead_b.PNG,2,3,right
,,,1A,A,2024-02-16_14h44.12.299,Fish Game,2023.1.3,MacIntel,59.97361161,justicestudyid,justicesessionid,justiceprolificid,,,,,,,,,,,,,,,12,,,,,,,,,,,,,,680.4613,11,left,0.6181,,0,1.5,682.5954,0,11,11,11,1,stimuli/bead_b.PNG,stimuli/bead_g.PNG,stimuli/bead_b.PNG,stimuli/bead_y.PNG,stimuli/bead_b.PNG,2,3,right
,,,1A,A,2024-02-16_14h44.12.299,Fish Game,2023.1.3,MacIntel,59.97361161,justicestudyid,justicesessionid,justiceprolificid,,,,,,,,,,,,,,,13,,,,,,,,,,,,,,683.0993,12,left,0.8174,,0,0.5,684.4472,0,12,12,12,1,stimuli/bead_g.PNG,stimuli/bead_b.PNG,stimuli/bead_g.PNG,stimuli/bead_b.PNG,stimuli/bead_y.PNG,2,3,right
,,,1A,A,2024-02-16_14h44.12.299,Fish Game,2023.1.3,MacIntel,59.97361161,justicestudyid,justicesessionid,justiceprolificid,,,,,,,,,,,,,,,14,,,,,,,,,,,,,,684.9488,13,right,0.5844,,1,0.5,686.0655,0,13,13,13,1,stimuli/bead_g.PNG,stimuli/bead_g.PNG,stimuli/bead_b.PNG,stimuli/bead_g.PNG,stimuli/bead_b.PNG,2,3,right
,,,1A,A,2024-02-16_14h44.12.299,Fish Game,2023.1.3,MacIntel,59.97361161,justicestudyid,justicesessionid,justiceprolificid,,,,,,,,,,,,,,,15,,,,,,,,,,,,,,686.5651,14,right,0.4306,,1,1.5,688.5171,0,14,14,14,1,stimuli/bead_g.PNG,stimuli/bead_g.PNG,stimuli/bead_g.PNG,stimuli/bead_b.PNG,stimuli/bead_g.PNG,2,3,right
