welcome_key_keys,welcome_key_rt,welcome_key_duration,prolific_id,path_id,date,expName,psychopyVersion,OS,frameRate,ins1_key_keys,ins1_key_rt,ins1_key_duration,practice_trial_started,practice_trial_num,prac_key_resp_keys,prac_key_resp_rt,prac_key_resp_duration,prac_resp_corr,prac_trials.thisRepN,prac_trials.thisTrialN,prac_trials.thisN,prac_trials.thisIndex,prac_trials.ran,trial,fish1_p,fish2_p,fish3_p,fish4_p,fish5_p,pond_p,pond_p2,pond_p3,ExpStart_key_keys,ExpStart_key_rt,ExpStart_key_duration,block number,block assignment,main_trial_started,main_trial_num,trial_resp_keys,trial_resp_rt,trial_resp_duration,main_resp_corr,fish_interval,key_resp_time,trials.thisRepN,trials.thisTrialN,trials.thisN,trials.thisIndex,trials.ran,fish1,fish2,fish3,fish4,fish5,pond,pond2,pond3
space,1.0328,,,A,2024-04-29_20h57.54.456,Fish Game,2023.1.3,MacIntel,59.88023952,,,,,,,,,,,,,,,,,,,,,,,,,,,,,,,,,,,,,,,,,,,,,,,,,
,,,,A,2024-04-29_20h57.54.456,Fish Game,2023.1.3,MacIntel,59.88023952,space,0.5473,,,,,,,,,,,,,,,,,,,,,,,,,,,,,,,,,,,,,,,,,,,,,,,
,,,,A,2024-04-29_20h57.54.456,Fish Game,2023.1.3,MacIntel,59.88023952,,,,,,,,,,,,,,,,,,,,,,,,,,,,,,,,,,,,,,,,,,,,,,,,,
,,,,A,2024-04-29_20h57.54.456,Fish Game,2023.1.3,MacIntel,59.88023952,,,,,,,,,,,,,,,,,,,,,,,,,,,,,,,,,,,,,,,,,,,,,,,,,
,,,,A,2024-04-29_20h57.54.456,Fish Game,2023.1.3,MacIntel,59.88023952,,,,,,,,,,,,,,,,,,,,,,,,,,,,,,,,,,,,,,,,,,,,,,,,,
,,,,A,2024-04-29_20h57.54.456,Fish Game,2023.1.3,MacIntel,59.88023952,,,,,,,,,,,,,,,,,,,,,,,,,,,,,,,,,,,,,,,,,,,,,,,,,
,,,,A,2024-04-29_20h57.54.456,Fish Game,2023.1.3,MacIntel,59.88023952,,,,111.1421,0,left,0.5814,,1,0,0,0,0,1,1,stimuli/bead_b.PNG,stimuli/blank.jpg,stimuli/blank.jpg,stimuli/blank.jpg,stimuli/blank.jpg,0,1,left,,,,,,,,,,,,,,,,,,,,,,,,,,
,,,,A,2024-04-29_20h57.54.456,Fish Game,2023.1.3,MacIntel,59.88023952,,,,114.0513,1,left,0.5752,,1,0,1,1,1,1,2,stimuli/bead_b.PNG,stimuli/bead_b.PNG,stimuli/blank.jpg,stimuli/blank.jpg,stimuli/blank.jpg,0,1,left,,,,,,,,,,,,,,,,,,,,,,,,,,
,,,,A,2024-04-29_20h57.54.456,Fish Game,2023.1.3,MacIntel,59.88023952,,,,116.4614,2,left,0.4718,,1,0,2,2,2,1,3,stimuli/bead_g.PNG,stimuli/bead_b.PNG,stimuli/bead_b.PNG,stimuli/blank.jpg,stimuli/blank.jpg,0,1,left,,,,,,,,,,,,,,,,,,,,,,,,,,
,,,,A,2024-04-29_20h57.54.456,Fish Game,2023.1.3,MacIntel,59.88023952,,,,119.2565,3,left,0.7705,,1,0,3,3,3,1,4,stimuli/bead_b.PNG,stimuli/bead_g.PNG,stimuli/bead_b.PNG,stimuli/bead_b.PNG,stimuli/blank.jpg,0,1,left,,,,,,,,,,,,,,,,,,,,,,,,,,
,,,,A,2024-04-29_20h57.54.456,Fish Game,2023.1.3,MacIntel,59.88023952,,,,121.3426,4,left,0.556,,1,0,4,4,4,1,5,stimuli/bead_b.PNG,stimuli/bead_b.PNG,stimuli/bead_g.PNG,stimuli/bead_b.PNG,stimuli/bead_b.PNG,0,1,left,,,,,,,,,,,,,,,,,,,,,,,,,,
,,,,A,2024-04-29_20h57.54.456,Fish Game,2023.1.3,MacIntel,59.88023952,,,,124.2113,5,left,0.5536,,1,0,5,5,5,1,6,stimuli/bead_y.PNG,stimuli/bead_b.PNG,stimuli/bead_b.PNG,stimuli/bead_g.PNG,stimuli/bead_b.PNG,0,1,left,,,,,,,,,,,,,,,,,,,,,,,,,,
,,,,A,2024-04-29_20h57.54.456,Fish Game,2023.1.3,MacIntel,59.88023952,,,,126.0872,6,left,0.638,,1,0,6,6,6,1,7,stimuli/bead_b.PNG,stimuli/bead_y.PNG,stimuli/bead_b.PNG,stimuli/bead_b.PNG,stimuli/bead_g.PNG,0,1,left,,,,,,,,,,,,,,,,,,,,,,,,,,
,,,,A,2024-04-29_20h57.54.456,Fish Game,2023.1.3,MacIntel,59.88023952,,,,129.0583,7,up,2.2151,,1,0,7,7,7,1,8,stimuli/bead_y.PNG,stimuli/bead_b.PNG,stimuli/bead_y.PNG,stimuli/bead_b.PNG,stimuli/bead_b.PNG,1,2,up,,,,,,,,,,,,,,,,,,,,,,,,,,
,,,,A,2024-04-29_20h57.54.456,Fish Game,2023.1.3,MacIntel,59.88023952,,,,133.0943,8,up,0.6117,,1,0,8,8,8,1,9,stimuli/bead_y.PNG,stimuli/bead_y.PNG,stimuli/bead_b.PNG,stimuli/bead_y.PNG,stimuli/bead_b.PNG,1,2,up,,,,,,,,,,,,,,,,,,,,,,,,,,
,,,,A,2024-04-29_20h57.54.456,Fish Game,2023.1.3,MacIntel,59.88023952,,,,136.0195,9,up,0.5221,,1,0,9,9,9,1,10,stimuli/bead_b.PNG,stimuli/bead_y.PNG,stimuli/bead_y.PNG,stimuli/bead_b.PNG,stimuli/bead_y.PNG,1,2,up,,,,,,,,,,,,,,,,,,,,,,,,,,
,,,,A,2024-04-29_20h57.54.456,Fish Game,2023.1.3,MacIntel,59.88023952,,,,138.3489,10,up,0.4989,,1,0,10,10,10,1,11,stimuli/bead_y.PNG,stimuli/bead_b.PNG,stimuli/bead_y.PNG,stimuli/bead_y.PNG,stimuli/bead_b.PNG,1,2,up,,,,,,,,,,,,,,,,,,,,,,,,,,
,,,,A,2024-04-29_20h57.54.456,Fish Game,2023.1.3,MacIntel,59.88023952,,,,141.1759,11,up,1.5928,,1,0,11,11,11,1,12,stimuli/bead_y.PNG,stimuli/bead_y.PNG,stimuli/bead_b.PNG,stimuli/bead_y.PNG,stimuli/bead_y.PNG,1,2,up,,,,,,,,,,,,,,,,,,,,,,,,,,
,,,,A,2024-04-29_20h57.54.456,Fish Game,2023.1.3,MacIntel,59.88023952,,,,145.0932,12,up,1.4615,,1,0,12,12,12,1,13,stimuli/bead_b.PNG,stimuli/bead_y.PNG,stimuli/bead_y.PNG,stimuli/bead_b.PNG,stimuli/bead_y.PNG,1,2,up,,,,,,,,,,,,,,,,,,,,,,,,,,
,,,,A,2024-04-29_20h57.54.456,Fish Game,2023.1.3,MacIntel,59.88023952,,,,148.381,13,up,0.7226,,1,0,13,13,13,1,14,stimuli/bead_y.PNG,stimuli/bead_b.PNG,stimuli/bead_y.PNG,stimuli/bead_y.PNG,stimuli/bead_b.PNG,1,2,up,,,,,,,,,,,,,,,,,,,,,,,,,,
,,,,A,2024-04-29_20h57.54.456,Fish Game,2023.1.3,MacIntel,59.88023952,,,,151.418,14,up,1.3191,,1,0,14,14,14,1,15,stimuli/bead_y.PNG,stimuli/bead_y.PNG,stimuli/bead_b.PNG,stimuli/bead_y.PNG,stimuli/bead_y.PNG,1,2,up,,,,,,,,,,,,,,,,,,,,,,,,,,
,,,,A,2024-04-29_20h57.54.456,Fish Game,2023.1.3,MacIntel,59.88023952,,,,159.0621,0,up,0.483,,0,0,0,0,0,1,1,stimuli/bead_g.PNG,stimuli/blank.jpg,stimuli/blank.jpg,stimuli/blank.jpg,stimuli/blank.jpg,2,3,right,,,,,,,,,,,,,,,,,,,,,,,,,,
,,,,A,2024-04-29_20h57.54.456,Fish Game,2023.1.3,MacIntel,59.88023952,,,,160.869,1,up,0.6444,,0,0,1,1,1,1,2,stimuli/bead_g.PNG,stimuli/bead_g.PNG,stimuli/blank.jpg,stimuli/blank.jpg,stimuli/blank.jpg,2,3,right,,,,,,,,,,,,,,,,,,,,,,,,,,
,,,,A,2024-04-29_20h57.54.456,Fish Game,2023.1.3,MacIntel,59.88023952,,,,163.8528,2,up,0.5955,,0,0,2,2,2,1,3,stimuli/bead_b.PNG,stimuli/bead_g.PNG,stimuli/bead_g.PNG,stimuli/blank.jpg,stimuli/blank.jpg,2,3,right,,,,,,,,,,,,,,,,,,,,,,,,,,
,,,,A,2024-04-29_20h57.54.456,Fish Game,2023.1.3,MacIntel,59.88023952,,,,165.7827,3,right,0.6528,,1,0,3,3,3,1,4,stimuli/bead_g.PNG,stimuli/bead_b.PNG,stimuli/bead_g.PNG,stimuli/bead_g.PNG,stimuli/blank.jpg,2,3,right,,,,,,,,,,,,,,,,,,,,,,,,,,
,,,,A,2024-04-29_20h57.54.456,Fish Game,2023.1.3,MacIntel,59.88023952,,,,167.7742,4,right,0.4859,,1,0,4,4,4,1,5,stimuli/bead_b.PNG,stimuli/bead_g.PNG,stimuli/bead_b.PNG,stimuli/bead_g.PNG,stimuli/bead_g.PNG,2,3,right,,,,,,,,,,,,,,,,,,,,,,,,,,
,,,,A,2024-04-29_20h57.54.456,Fish Game,2023.1.3,MacIntel,59.88023952,,,,170.081,5,right,0.5682,,1,0,5,5,5,1,6,stimuli/bead_g.PNG,stimuli/bead_b.PNG,stimuli/bead_g.PNG,stimuli/bead_b.PNG,stimuli/bead_g.PNG,2,3,right,,,,,,,,,,,,,,,,,,,,,,,,,,
,,,,A,2024-04-29_20h57.54.456,Fish Game,2023.1.3,MacIntel,59.88023952,,,,171.9715,6,right,0.888,,1,0,6,6,6,1,7,stimuli/bead_g.PNG,stimuli/bead_g.PNG,stimuli/bead_b.PNG,stimuli/bead_g.PNG,stimuli/bead_b.PNG,2,3,right,,,,,,,,,,,,,,,,,,,,,,,,,,
,,,,A,2024-04-29_20h57.54.456,Fish Game,2023.1.3,MacIntel,59.88023952,,,,175.1817,7,right,0.578,,1,0,7,7,7,1,8,stimuli/bead_g.PNG,stimuli/bead_g.PNG,stimuli/bead_g.PNG,stimuli/bead_b.PNG,stimuli/bead_g.PNG,2,3,right,,,,,,,,,,,,,,,,,,,,,,,,,,
,,,,A,2024-04-29_20h57.54.456,Fish Game,2023.1.3,MacIntel,59.88023952,,,,177.5789,8,right,0.5833,,0,0,8,8,8,1,9,stimuli/bead_y.PNG,stimuli/bead_g.PNG,stimuli/bead_g.PNG,stimuli/bead_g.PNG,stimuli/bead_b.PNG,1,2,up,,,,,,,,,,,,,,,,,,,,,,,,,,
,,,,A,2024-04-29_20h57.54.456,Fish Game,2023.1.3,MacIntel,59.88023952,,,,180.4921,9,up,0.7584,,1,0,9,9,9,1,10,stimuli/bead_y.PNG,stimuli/bead_y.PNG,stimuli/bead_g.PNG,stimuli/bead_g.PNG,stimuli/bead_g.PNG,1,2,up,,,,,,,,,,,,,,,,,,,,,,,,,,
,,,,A,2024-04-29_20h57.54.456,Fish Game,2023.1.3,MacIntel,59.88023952,,,,183.5676,10,up,0.5977,,1,0,10,10,10,1,11,stimuli/bead_y.PNG,stimuli/bead_y.PNG,stimuli/bead_y.PNG,stimuli/bead_g.PNG,stimuli/bead_g.PNG,1,2,up,,,,,,,,,,,,,,,,,,,,,,,,,,
,,,,A,2024-04-29_20h57.54.456,Fish Game,2023.1.3,MacIntel,59.88023952,,,,185.4695,11,up,0.5205,,1,0,11,11,11,1,12,stimuli/bead_g.PNG,stimuli/bead_y.PNG,stimuli/bead_y.PNG,stimuli/bead_y.PNG,stimuli/bead_g.PNG,1,2,up,,,,,,,,,,,,,,,,,,,,,,,,,,
,,,,A,2024-04-29_20h57.54.456,Fish Game,2023.1.3,MacIntel,59.88023952,,,,187.3206,12,up,0.5611,,1,0,12,12,12,1,13,stimuli/bead_y.PNG,stimuli/bead_g.PNG,stimuli/bead_y.PNG,stimuli/bead_y.PNG,stimuli/bead_y.PNG,1,2,up,,,,,,,,,,,,,,,,,,,,,,,,,,
,,,,A,2024-04-29_20h57.54.456,Fish Game,2023.1.3,MacIntel,59.88023952,,,,190.2098,13,up,0.5651,,1,0,13,13,13,1,14,stimuli/bead_y.PNG,stimuli/bead_y.PNG,stimuli/bead_g.PNG,stimuli/bead_y.PNG,stimuli/bead_y.PNG,1,2,up,,,,,,,,,,,,,,,,,,,,,,,,,,
,,,,A,2024-04-29_20h57.54.456,Fish Game,2023.1.3,MacIntel,59.88023952,,,,193.1095,14,up,0.6396,,1,0,14,14,14,1,15,stimuli/bead_b.PNG,stimuli/bead_y.PNG,stimuli/bead_y.PNG,stimuli/bead_g.PNG,stimuli/bead_y.PNG,1,2,up,,,,,,,,,,,,,,,,,,,,,,,,,,
,,,,A,2024-04-29_20h57.54.456,Fish Game,2023.1.3,MacIntel,59.88023952,,,,,,,,,,,,,,,1,,,,,,,,,space,1.5558,,1,1condition/mainTrials6.xlsx,202.2114,0,left,0.1419,,0,1,203.884,0,0,0,0,1,stimuli/bead_b.PNG,stimuli/blank.jpg,stimuli/blank.jpg,stimuli/blank.jpg,stimuli/blank.jpg,1,2,up
,,,,A,2024-04-29_20h57.54.456,Fish Game,2023.1.3,MacIntel,59.88023952,,,,,,,,,,,,,,,2,,,,,,,,,,,,,,204.3762,1,left,0.1813,,0,0.5,205.5701,0,1,1,1,1,stimuli/bead_y.PNG,stimuli/bead_b.PNG,stimuli/blank.jpg,stimuli/blank.jpg,stimuli/blank.jpg,1,2,up
,,,,A,2024-04-29_20h57.54.456,Fish Game,2023.1.3,MacIntel,59.88023952,,,,,,,,,,,,,,,3,,,,,,,,,,,,,,206.0718,2,left,0.0659,,0,0.5,207.1721,0,2,2,2,1,stimuli/bead_y.PNG,stimuli/bead_y.PNG,stimuli/bead_b.PNG,stimuli/blank.jpg,stimuli/blank.jpg,1,2,up
,,,,A,2024-04-29_20h57.54.456,Fish Game,2023.1.3,MacIntel,59.88023952,,,,,,,,,,,,,,,4,,,,,,,,,,,,,,207.6641,3,up,0.0698,,1,1.5,209.7501,0,3,3,3,1,stimuli/bead_y.PNG,stimuli/bead_y.PNG,stimuli/bead_y.PNG,stimuli/bead_b.PNG,stimuli/blank.jpg,1,2,up
,,,,A,2024-04-29_20h57.54.456,Fish Game,2023.1.3,MacIntel,59.88023952,,,,,,,,,,,,,,,5,,,,,,,,,,,,,,210.2496,4,up,0.1195,,0,1,211.8863,0,4,4,4,1,stimuli/bead_g.PNG,stimuli/bead_y.PNG,stimuli/bead_y.PNG,stimuli/bead_y.PNG,stimuli/bead_b.PNG,2,3,right
,,,,A,2024-04-29_20h57.54.456,Fish Game,2023.1.3,MacIntel,59.88023952,,,,,,,,,,,,,,,6,,,,,,,,,,,,,,212.3899,5,up,0.1281,,0,1,214.0466,0,5,5,5,1,stimuli/bead_g.PNG,stimuli/bead_g.PNG,stimuli/bead_y.PNG,stimuli/bead_y.PNG,stimuli/bead_y.PNG,2,3,right
,,,,A,2024-04-29_20h57.54.456,Fish Game,2023.1.3,MacIntel,59.88023952,,,,,,,,,,,,,,,7,,,,,,,,,,,,,,214.5445,6,up,0.0438,,0,1.5,216.5997,0,6,6,6,1,stimuli/bead_y.PNG,stimuli/bead_g.PNG,stimuli/bead_g.PNG,stimuli/bead_y.PNG,stimuli/bead_y.PNG,2,3,right
,,,,A,2024-04-29_20h57.54.456,Fish Game,2023.1.3,MacIntel,59.88023952,,,,,,,,,,,,,,,8,,,,,,,,,,,,,,217.1097,7,up,0.05,,0,0.5,218.1887,0,7,7,7,1,stimuli/bead_g.PNG,stimuli/bead_y.PNG,stimuli/bead_g.PNG,stimuli/bead_g.PNG,stimuli/bead_y.PNG,2,3,right
,,,,A,2024-04-29_20h57.54.456,Fish Game,2023.1.3,MacIntel,59.88023952,,,,,,,,,,,,,,,9,,,,,,,,,,,,,,218.6841,8,right,0.0937,,1,1.5,220.8008,0,8,8,8,1,stimuli/bead_g.PNG,stimuli/bead_g.PNG,stimuli/bead_y.PNG,stimuli/bead_g.PNG,stimuli/bead_g.PNG,2,3,right
,,,,A,2024-04-29_20h57.54.456,Fish Game,2023.1.3,MacIntel,59.88023952,,,,,,,,,,,,,,,10,,,,,,,,,,,,,,221.3001,9,right,0.0569,,1,1.5,223.3728,0,9,9,9,1,stimuli/bead_g.PNG,stimuli/bead_g.PNG,stimuli/bead_g.PNG,stimuli/bead_y.PNG,stimuli/bead_g.PNG,2,3,right
,,,,A,2024-04-29_20h57.54.456,Fish Game,2023.1.3,MacIntel,59.88023952,,,,,,,,,,,,,,,11,,,,,,,,,,,,,,223.873,10,right,0.0558,,0,1,225.4469,0,10,10,10,1,stimuli/bead_y.PNG,stimuli/bead_g.PNG,stimuli/bead_g.PNG,stimuli/bead_g.PNG,stimuli/bead_y.PNG,1,2,up
,,,,A,2024-04-29_20h57.54.456,Fish Game,2023.1.3,MacIntel,59.88023952,,,,,,,,,,,,,,,12,,,,,,,,,,,,,,225.9506,11,right,0.0531,,0,1.5,228.031,0,11,11,11,1,stimuli/bead_b.PNG,stimuli/bead_y.PNG,stimuli/bead_g.PNG,stimuli/bead_g.PNG,stimuli/bead_g.PNG,1,2,up
,,,,A,2024-04-29_20h57.54.456,Fish Game,2023.1.3,MacIntel,59.88023952,,,,,,,,,,,,,,,13,,,,,,,,,,,,,,228.5343,12,right,0.0896,,0,1,230.1486,0,12,12,12,1,stimuli/bead_y.PNG,stimuli/bead_b.PNG,stimuli/bead_y.PNG,stimuli/bead_g.PNG,stimuli/bead_g.PNG,1,2,up
,,,,A,2024-04-29_20h57.54.456,Fish Game,2023.1.3,MacIntel,59.88023952,,,,,,,,,,,,,,,14,,,,,,,,,,,,,,230.6576,13,right,0.0272,,0,0.5,231.7078,0,13,13,13,1,stimuli/bead_y.PNG,stimuli/bead_y.PNG,stimuli/bead_b.PNG,stimuli/bead_y.PNG,stimuli/bead_g.PNG,1,2,up
,,,,A,2024-04-29_20h57.54.456,Fish Game,2023.1.3,MacIntel,59.88023952,,,,,,,,,,,,,,,15,,,,,,,,,,,,,,232.2031,14,up,0.0127,,1,0.5,233.2329,0,14,14,14,1,stimuli/bead_y.PNG,stimuli/bead_y.PNG,stimuli/bead_y.PNG,stimuli/bead_b.PNG,stimuli/bead_y.PNG,1,2,up
,,,,A,2024-04-29_20h57.54.456,Fish Game,2023.1.3,MacIntel,59.88023952,,,,,,,,,,,,,,,1,,,,,,,,,,,,2,1condition/mainTrials7.xlsx,238.7235,0,up,0.1336,,1,0.5,239.8698,0,0,0,0,1,stimuli/bead_y.PNG,stimuli/blank.jpg,stimuli/blank.jpg,stimuli/blank.jpg,stimuli/blank.jpg,1,2,up
,,,,A,2024-04-29_20h57.54.456,Fish Game,2023.1.3,MacIntel,59.88023952,,,,,,,,,,,,,,,2,,,,,,,,,,,,,,240.3703,1,up,0.0218,,1,1.5,242.4062,0,1,1,1,1,stimuli/bead_y.PNG,stimuli/bead_y.PNG,stimuli/blank.jpg,stimuli/blank.jpg,stimuli/blank.jpg,1,2,up
,,,,A,2024-04-29_20h57.54.456,Fish Game,2023.1.3,MacIntel,59.88023952,,,,,,,,,,,,,,,3,,,,,,,,,,,,,,242.913,2,up,0.0759,,1,1.5,245.0124,0,2,2,2,1,stimuli/bead_g.PNG,stimuli/bead_y.PNG,stimuli/bead_y.PNG,stimuli/blank.jpg,stimuli/blank.jpg,1,2,up
,,,,A,2024-04-29_20h57.54.456,Fish Game,2023.1.3,MacIntel,59.88023952,,,,,,,,,,,,,,,4,,,,,,,,,,,,,,245.5133,3,right,0.7263,,0,1.5,248.2579,0,3,3,3,1,stimuli/bead_y.PNG,stimuli/bead_g.PNG,stimuli/bead_y.PNG,stimuli/bead_y.PNG,stimuli/blank.jpg,1,2,up
,,,,A,2024-04-29_20h57.54.456,Fish Game,2023.1.3,MacIntel,59.88023952,,,,,,,,,,,,,,,5,,,,,,,,,,,,,,248.7576,4,right,0.0022,,0,1.5,250.8038,0,4,4,4,1,stimuli/bead_y.PNG,stimuli/bead_y.PNG,stimuli/bead_g.PNG,stimuli/bead_y.PNG,stimuli/bead_y.PNG,1,2,up
,,,,A,2024-04-29_20h57.54.456,Fish Game,2023.1.3,MacIntel,59.88023952,,,,,,,,,,,,,,,6,,,,,,,,,,,,,,251.2967,5,up,0.0051,,1,1,252.839,0,5,5,5,1,stimuli/bead_y.PNG,stimuli/bead_y.PNG,stimuli/bead_y.PNG,stimuli/bead_g.PNG,stimuli/bead_y.PNG,1,2,up
,,,,A,2024-04-29_20h57.54.456,Fish Game,2023.1.3,MacIntel,59.88023952,,,,,,,,,,,,,,,7,,,,,,,,,,,,,,253.3307,6,up,0.0879,,1,1.5,255.4387,0,6,6,6,1,stimuli/bead_b.PNG,stimuli/bead_y.PNG,stimuli/bead_y.PNG,stimuli/bead_y.PNG,stimuli/bead_g.PNG,1,2,up
,,,,A,2024-04-29_20h57.54.456,Fish Game,2023.1.3,MacIntel,59.88023952,,,,,,,,,,,,,,,8,,,,,,,,,,,,,,255.9248,7,up,0.0402,,1,1,257.4861,0,7,7,7,1,stimuli/bead_y.PNG,stimuli/bead_b.PNG,stimuli/bead_y.PNG,stimuli/bead_y.PNG,stimuli/bead_y.PNG,1,2,up
,,,,A,2024-04-29_20h57.54.456,Fish Game,2023.1.3,MacIntel,59.88023952,,,,,,,,,,,,,,,9,,,,,,,,,,,,,,257.9894,8,up,0.0419,,0,0.5,259.0485,0,8,8,8,1,stimuli/bead_y.PNG,stimuli/bead_y.PNG,stimuli/bead_b.PNG,stimuli/bead_y.PNG,stimuli/bead_y.PNG,1,2,right
,,,,A,2024-04-29_20h57.54.456,Fish Game,2023.1.3,MacIntel,59.88023952,,,,,,,,,,,,,,,10,,,,,,,,,,,,,,259.5464,9,up,0.1148,,0,0.5,260.698,0,9,9,9,1,stimuli/bead_g.PNG,stimuli/bead_y.PNG,stimuli/bead_y.PNG,stimuli/bead_b.PNG,stimuli/bead_y.PNG,2,3,right
,,,,A,2024-04-29_20h57.54.456,Fish Game,2023.1.3,MacIntel,59.88023952,,,,,,,,,,,,,,,11,,,,,,,,,,,,,,261.1876,10,up,0.1382,,0,0.5,262.3439,0,10,10,10,1,stimuli/bead_g.PNG,stimuli/bead_g.PNG,stimuli/bead_y.PNG,stimuli/bead_y.PNG,stimuli/bead_b.PNG,2,3,right
,,,,A,2024-04-29_20h57.54.456,Fish Game,2023.1.3,MacIntel,59.88023952,,,,,,,,,,,,,,,12,,,,,,,,,,,,,,262.8326,11,right,0.1238,,1,1,264.4785,0,11,11,11,1,stimuli/bead_y.PNG,stimuli/bead_g.PNG,stimuli/bead_g.PNG,stimuli/bead_y.PNG,stimuli/bead_y.PNG,2,3,right
,,,,A,2024-04-29_20h57.54.456,Fish Game,2023.1.3,MacIntel,59.88023952,,,,,,,,,,,,,,,13,,,,,,,,,,,,,,264.969,12,right,0.0082,,1,1,266.4997,0,12,12,12,1,stimuli/bead_g.PNG,stimuli/bead_y.PNG,stimuli/bead_g.PNG,stimuli/bead_g.PNG,stimuli/bead_y.PNG,2,3,right
,,,,A,2024-04-29_20h57.54.456,Fish Game,2023.1.3,MacIntel,59.88023952,,,,,,,,,,,,,,,14,,,,,,,,,,,,,,267.0024,13,right,0.1417,,1,0.5,268.1653,0,13,13,13,1,stimuli/bead_g.PNG,stimuli/bead_g.PNG,stimuli/bead_y.PNG,stimuli/bead_g.PNG,stimuli/bead_g.PNG,2,3,right
,,,,A,2024-04-29_20h57.54.456,Fish Game,2023.1.3,MacIntel,59.88023952,,,,,,,,,,,,,,,15,,,,,,,,,,,,,,268.6601,14,right,0.1296,,1,1,270.3137,0,14,14,14,1,stimuli/bead_g.PNG,stimuli/bead_g.PNG,stimuli/bead_g.PNG,stimuli/bead_y.PNG,stimuli/bead_g.PNG,2,3,right
,,,,A,2024-04-29_20h57.54.456,Fish Game,2023.1.3,MacIntel,59.88023952,,,,,,,,,,,,,,,1,,,,,,,,,,,,3,1condition/mainTrials8.xlsx,275.8029,0,up,0.0247,,0,0.5,276.8525,0,0,0,0,1,stimuli/bead_y.PNG,stimuli/blank.jpg,stimuli/blank.jpg,stimuli/blank.jpg,stimuli/blank.jpg,0,1,left
,,,,A,2024-04-29_20h57.54.456,Fish Game,2023.1.3,MacIntel,59.88023952,,,,,,,,,,,,,,,2,,,,,,,,,,,,,,277.3417,1,up,0.1719,,0,0.5,278.5502,0,1,1,1,1,stimuli/bead_b.PNG,stimuli/bead_y.PNG,stimuli/blank.jpg,stimuli/blank.jpg,stimuli/blank.jpg,0,1,left
,,,,A,2024-04-29_20h57.54.456,Fish Game,2023.1.3,MacIntel,59.88023952,,,,,,,,,,,,,,,3,,,,,,,,,,,,,,279.0527,2,up,0.1058,,0,0.5,280.1769,0,2,2,2,1,stimuli/bead_g.PNG,stimuli/bead_b.PNG,stimuli/bead_y.PNG,stimuli/blank.jpg,stimuli/blank.jpg,0,1,left
,,,,A,2024-04-29_20h57.54.456,Fish Game,2023.1.3,MacIntel,59.88023952,,,,,,,,,,,,,,,4,,,,,,,,,,,,,,280.6721,3,left,0.1596,,1,0.5,281.8596,0,3,3,3,1,stimuli/bead_b.PNG,stimuli/bead_g.PNG,stimuli/bead_b.PNG,stimuli/bead_y.PNG,stimuli/blank.jpg,0,1,left
,,,,A,2024-04-29_20h57.54.456,Fish Game,2023.1.3,MacIntel,59.88023952,,,,,,,,,,,,,,,5,,,,,,,,,,,,,,282.3446,4,left,0.4821,,1,0.5,283.8576,0,4,4,4,1,stimuli/bead_b.PNG,stimuli/bead_b.PNG,stimuli/bead_g.PNG,stimuli/bead_b.PNG,stimuli/bead_y.PNG,0,1,left
,,,,A,2024-04-29_20h57.54.456,Fish Game,2023.1.3,MacIntel,59.88023952,,,,,,,,,,,,,,,6,,,,,,,,,,,,,,284.3592,5,left,0.1183,,1,1.5,286.5014,0,5,5,5,1,stimuli/bead_b.PNG,stimuli/bead_b.PNG,stimuli/bead_b.PNG,stimuli/bead_g.PNG,stimuli/bead_b.PNG,0,1,left
,,,,A,2024-04-29_20h57.54.456,Fish Game,2023.1.3,MacIntel,59.88023952,,,,,,,,,,,,,,,7,,,,,,,,,,,,,,286.9955,6,left,0.0321,,1,1,288.5574,0,6,6,6,1,stimuli/bead_g.PNG,stimuli/bead_b.PNG,stimuli/bead_b.PNG,stimuli/bead_b.PNG,stimuli/bead_g.PNG,0,1,left
,,,,A,2024-04-29_20h57.54.456,Fish Game,2023.1.3,MacIntel,59.88023952,,,,,,,,,,,,,,,8,,,,,,,,,,,,,,289.0536,7,left,0.1024,,1,1.5,291.1807,0,7,7,7,1,stimuli/bead_b.PNG,stimuli/bead_g.PNG,stimuli/bead_b.PNG,stimuli/bead_b.PNG,stimuli/bead_b.PNG,0,1,left
,,,,A,2024-04-29_20h57.54.456,Fish Game,2023.1.3,MacIntel,59.88023952,,,,,,,,,,,,,,,9,,,,,,,,,,,,,,291.6615,8,left,0.0109,,1,1.5,293.6962,0,8,8,8,1,stimuli/bead_y.PNG,stimuli/bead_b.PNG,stimuli/bead_g.PNG,stimuli/bead_b.PNG,stimuli/bead_b.PNG,0,1,left
,,,,A,2024-04-29_20h57.54.456,Fish Game,2023.1.3,MacIntel,59.88023952,,,,,,,,,,,,,,,10,,,,,,,,,,,,,,294.1866,9,left,0.1441,,1,1.5,296.3433,0,9,9,9,1,stimuli/bead_b.PNG,stimuli/bead_y.PNG,stimuli/bead_b.PNG,stimuli/bead_g.PNG,stimuli/bead_b.PNG,0,1,left
,,,,A,2024-04-29_20h57.54.456,Fish Game,2023.1.3,MacIntel,59.88023952,,,,,,,,,,,,,,,11,,,,,,,,,,,,,,296.8466,10,left,0.3432,,1,0.5,298.2127,0,10,10,10,1,stimuli/bead_b.PNG,stimuli/bead_b.PNG,stimuli/bead_y.PNG,stimuli/bead_b.PNG,stimuli/bead_g.PNG,0,1,left
,,,,A,2024-04-29_20h57.54.456,Fish Game,2023.1.3,MacIntel,59.88023952,,,,,,,,,,,,,,,12,,,,,,,,,,,,,,298.7137,11,left,0.0882,,0,1,300.3135,0,11,11,11,1,stimuli/bead_y.PNG,stimuli/bead_b.PNG,stimuli/bead_b.PNG,stimuli/bead_y.PNG,stimuli/bead_b.PNG,1,2,up
,,,,A,2024-04-29_20h57.54.456,Fish Game,2023.1.3,MacIntel,59.88023952,,,,,,,,,,,,,,,13,,,,,,,,,,,,,,300.8096,12,up,0.0701,,1,1.5,302.9043,0,12,12,12,1,stimuli/bead_y.PNG,stimuli/bead_y.PNG,stimuli/bead_b.PNG,stimuli/bead_b.PNG,stimuli/bead_y.PNG,1,2,up
,,,,A,2024-04-29_20h57.54.456,Fish Game,2023.1.3,MacIntel,59.88023952,,,,,,,,,,,,,,,14,,,,,,,,,,,,,,303.3933,13,up,0.1311,,1,0.5,304.5584,0,13,13,13,1,stimuli/bead_y.PNG,stimuli/bead_y.PNG,stimuli/bead_y.PNG,stimuli/bead_b.PNG,stimuli/bead_b.PNG,1,2,up
,,,,A,2024-04-29_20h57.54.456,Fish Game,2023.1.3,MacIntel,59.88023952,,,,,,,,,,,,,,,15,,,,,,,,,,,,,,305.0542,14,up,0.1108,,1,0.5,306.1902,0,14,14,14,1,stimuli/bead_g.PNG,stimuli/bead_y.PNG,stimuli/bead_y.PNG,stimuli/bead_y.PNG,stimuli/bead_b.PNG,1,2,up
,,,,A,2024-04-29_20h57.54.456,Fish Game,2023.1.3,MacIntel,59.88023952,,,,,,,,,,,,,,,1,,,,,,,,,,,,4,1condition/mainTrials1.xlsx,311.6805,0,right,0.2811,,1,0.5,312.9823,0,0,0,0,1,stimuli/bead_g.PNG,stimuli/blank.jpg,stimuli/blank.jpg,stimuli/blank.jpg,stimuli/blank.jpg,2,3,right
,,,,A,2024-04-29_20h57.54.456,Fish Game,2023.1.3,MacIntel,59.88023952,,,,,,,,,,,,,,,2,,,,,,,,,,,,,,313.4839,1,up,0.1197,,0,0.5,314.6342,0,1,1,1,1,stimuli/bead_y.PNG,stimuli/bead_g.PNG,stimuli/blank.jpg,stimuli/blank.jpg,stimuli/blank.jpg,2,3,right
,,,,A,2024-04-29_20h57.54.456,Fish Game,2023.1.3,MacIntel,59.88023952,,,,,,,,,,,,,,,3,,,,,,,,,,,,,,315.1363,2,right,0.3163,,1,1,316.9782,0,2,2,2,1,stimuli/bead_g.PNG,stimuli/bead_y.PNG,stimuli/bead_g.PNG,stimuli/blank.jpg,stimuli/blank.jpg,2,3,right
,,,,A,2024-04-29_20h57.54.456,Fish Game,2023.1.3,MacIntel,59.88023952,,,,,,,,,,,,,,,4,,,,,,,,,,,,,,317.4799,3,right,0.0954,,1,0.5,318.5889,0,3,3,3,1,stimuli/bead_b.PNG,stimuli/bead_g.PNG,stimuli/bead_y.PNG,stimuli/bead_g.PNG,stimuli/blank.jpg,2,3,right
,,,,A,2024-04-29_20h57.54.456,Fish Game,2023.1.3,MacIntel,59.88023952,,,,,,,,,,,,,,,5,,,,,,,,,,,,,,319.0883,4,right,0.3066,,1,1,320.9108,0,4,4,4,1,stimuli/bead_g.PNG,stimuli/bead_b.PNG,stimuli/bead_g.PNG,stimuli/bead_y.PNG,stimuli/bead_g.PNG,2,3,right
,,,,A,2024-04-29_20h57.54.456,Fish Game,2023.1.3,MacIntel,59.88023952,,,,,,,,,,,,,,,6,,,,,,,,,,,,,,321.4018,5,right,0.4115,,1,1,323.32,0,5,5,5,1,stimuli/bead_g.PNG,stimuli/bead_g.PNG,stimuli/bead_b.PNG,stimuli/bead_g.PNG,stimuli/bead_y.PNG,2,3,right
,,,,A,2024-04-29_20h57.54.456,Fish Game,2023.1.3,MacIntel,59.88023952,,,,,,,,,,,,,,,7,,,,,,,,,,,,,,323.8213,6,right,0.1481,,1,1,325.5053,0,6,6,6,1,stimuli/bead_g.PNG,stimuli/bead_g.PNG,stimuli/bead_g.PNG,stimuli/bead_b.PNG,stimuli/bead_g.PNG,2,3,right
,,,,A,2024-04-29_20h57.54.456,Fish Game,2023.1.3,MacIntel,59.88023952,,,,,,,,,,,,,,,8,,,,,,,,,,,,,,326.0058,7,right,0.0616,,1,1.5,328.0805,0,7,7,7,1,stimuli/bead_g.PNG,stimuli/bead_g.PNG,stimuli/bead_g.PNG,stimuli/bead_g.PNG,stimuli/bead_b.PNG,2,3,right
,,,,A,2024-04-29_20h57.54.456,Fish Game,2023.1.3,MacIntel,59.88023952,,,,,,,,,,,,,,,9,,,,,,,,,,,,,,328.5834,8,right,0.1717,,1,1,330.2749,0,8,8,8,1,stimuli/bead_b.PNG,stimuli/bead_g.PNG,stimuli/bead_g.PNG,stimuli/bead_g.PNG,stimuli/bead_g.PNG,2,3,right
,,,,A,2024-04-29_20h57.54.456,Fish Game,2023.1.3,MacIntel,59.88023952,,,,,,,,,,,,,,,10,,,,,,,,,,,,,,330.7703,9,right,0.0365,,1,1.5,332.8249,0,9,9,9,1,stimuli/bead_g.PNG,stimuli/bead_b.PNG,stimuli/bead_g.PNG,stimuli/bead_g.PNG,stimuli/bead_g.PNG,2,3,right
,,,,A,2024-04-29_20h57.54.456,Fish Game,2023.1.3,MacIntel,59.88023952,,,,,,,,,,,,,,,11,,,,,,,,,,,,,,333.3343,10,right,0.0888,,1,0.5,334.447,0,10,10,10,1,stimuli/bead_g.PNG,stimuli/bead_g.PNG,stimuli/bead_b.PNG,stimuli/bead_g.PNG,stimuli/bead_g.PNG,2,3,right
,,,,A,2024-04-29_20h57.54.456,Fish Game,2023.1.3,MacIntel,59.88023952,,,,,,,,,,,,,,,12,,,,,,,,,,,,,,334.9502,11,right,0.023,,1,0.5,335.9936,0,11,11,11,1,stimuli/bead_g.PNG,stimuli/bead_g.PNG,stimuli/bead_g.PNG,stimuli/bead_b.PNG,stimuli/bead_g.PNG,2,3,right
,,,,A,2024-04-29_20h57.54.456,Fish Game,2023.1.3,MacIntel,59.88023952,,,,,,,,,,,,,,,13,,,,,,,,,,,,,,336.4974,12,right,0.1342,,0,0.5,337.6484,0,12,12,12,1,stimuli/bead_b.PNG,stimuli/bead_g.PNG,stimuli/bead_g.PNG,stimuli/bead_g.PNG,stimuli/bead_b.PNG,0,1,left
,,,,A,2024-04-29_20h57.54.456,Fish Game,2023.1.3,MacIntel,59.88023952,,,,,,,,,,,,,,,14,,,,,,,,,,,,,,338.1521,13,right,0.1245,,0,1,339.7926,0,13,13,13,1,stimuli/bead_b.PNG,stimuli/bead_b.PNG,stimuli/bead_g.PNG,stimuli/bead_g.PNG,stimuli/bead_g.PNG,0,1,left
,,,,A,2024-04-29_20h57.54.456,Fish Game,2023.1.3,MacIntel,59.88023952,,,,,,,,,,,,,,,15,,,,,,,,,,,,,,340.2888,14,left,0.0895,,1,1.5,342.4009,0,14,14,14,1,stimuli/bead_b.PNG,stimuli/bead_b.PNG,stimuli/bead_b.PNG,stimuli/bead_g.PNG,stimuli/bead_g.PNG,0,1,left
,,,,A,2024-04-29_20h57.54.456,Fish Game,2023.1.3,MacIntel,59.88023952,,,,,,,,,,,,,,,1,,,,,,,,,,,,5,1condition/mainTrials2.xlsx,347.9046,0,up,0.1242,,1,1,349.5463,0,0,0,0,1,stimuli/bead_y.PNG,stimuli/blank.jpg,stimuli/blank.jpg,stimuli/blank.jpg,stimuli/blank.jpg,1,2,up
,,,,A,2024-04-29_20h57.54.456,Fish Game,2023.1.3,MacIntel,59.88023952,,,,,,,,,,,,,,,2,,,,,,,,,,,,,,350.0501,1,up,0.2026,,1,1,351.7771,0,1,1,1,1,stimuli/bead_b.PNG,stimuli/bead_y.PNG,stimuli/blank.jpg,stimuli/blank.jpg,stimuli/blank.jpg,1,2,up
,,,,A,2024-04-29_20h57.54.456,Fish Game,2023.1.3,MacIntel,59.88023952,,,,,,,,,,,,,,,3,,,,,,,,,,,,,,352.2639,2,up,0.2664,,1,0.5,353.5468,0,2,2,2,1,stimuli/bead_y.PNG,stimuli/bead_b.PNG,stimuli/bead_y.PNG,stimuli/blank.jpg,stimuli/blank.jpg,1,2,up
,,,,A,2024-04-29_20h57.54.456,Fish Game,2023.1.3,MacIntel,59.88023952,,,,,,,,,,,,,,,4,,,,,,,,,,,,,,354.048,3,up,0.3332,,1,1,355.9046,0,3,3,3,1,stimuli/bead_y.PNG,stimuli/bead_y.PNG,stimuli/bead_b.PNG,stimuli/bead_y.PNG,stimuli/blank.jpg,1,2,up
,,,,A,2024-04-29_20h57.54.456,Fish Game,2023.1.3,MacIntel,59.88023952,,,,,,,,,,,,,,,5,,,,,,,,,,,,,,356.4018,4,up,0.106,,1,0.5,357.541,0,4,4,4,1,stimuli/bead_g.PNG,stimuli/bead_y.PNG,stimuli/bead_y.PNG,stimuli/bead_b.PNG,stimuli/bead_y.PNG,1,2,up
,,,,A,2024-04-29_20h57.54.456,Fish Game,2023.1.3,MacIntel,59.88023952,,,,,,,,,,,,,,,6,,,,,,,,,,,,,,358.0499,5,up,0.1367,,1,0.5,359.216,0,5,5,5,1,stimuli/bead_y.PNG,stimuli/bead_g.PNG,stimuli/bead_y.PNG,stimuli/bead_y.PNG,stimuli/bead_b.PNG,1,2,up
,,,,A,2024-04-29_20h57.54.456,Fish Game,2023.1.3,MacIntel,59.88023952,,,,,,,,,,,,,,,7,,,,,,,,,,,,,,359.7292,6,up,0.168,,0,0.5,360.9206,0,6,6,6,1,stimuli/bead_b.PNG,stimuli/bead_y.PNG,stimuli/bead_g.PNG,stimuli/bead_y.PNG,stimuli/bead_y.PNG,0,1,left
,,,,A,2024-04-29_20h57.54.456,Fish Game,2023.1.3,MacIntel,59.88023952,,,,,,,,,,,,,,,8,,,,,,,,,,,,,,361.4211,7,left,0.3511,,1,1,363.2939,0,7,7,7,1,stimuli/bead_b.PNG,stimuli/bead_b.PNG,stimuli/bead_y.PNG,stimuli/bead_g.PNG,stimuli/bead_y.PNG,0,1,left
,,,,A,2024-04-29_20h57.54.456,Fish Game,2023.1.3,MacIntel,59.88023952,,,,,,,,,,,,,,,9,,,,,,,,,,,,,,363.7862,8,left,0.0698,,1,1,365.3817,0,8,8,8,1,stimuli/bead_y.PNG,stimuli/bead_b.PNG,stimuli/bead_b.PNG,stimuli/bead_y.PNG,stimuli/bead_g.PNG,0,1,left
,,,,A,2024-04-29_20h57.54.456,Fish Game,2023.1.3,MacIntel,59.88023952,,,,,,,,,,,,,,,10,,,,,,,,,,,,,,365.8704,9,left,0.1813,,1,0.5,367.0795,0,9,9,9,1,stimuli/bead_b.PNG,stimuli/bead_y.PNG,stimuli/bead_b.PNG,stimuli/bead_b.PNG,stimuli/bead_y.PNG,0,1,left
,,,,A,2024-04-29_20h57.54.456,Fish Game,2023.1.3,MacIntel,59.88023952,,,,,,,,,,,,,,,11,,,,,,,,,,,,,,367.5802,10,left,0.1291,,1,1.5,369.7334,0,10,10,10,1,stimuli/bead_b.PNG,stimuli/bead_b.PNG,stimuli/bead_y.PNG,stimuli/bead_b.PNG,stimuli/bead_b.PNG,0,1,left
,,,,A,2024-04-29_20h57.54.456,Fish Game,2023.1.3,MacIntel,59.88023952,,,,,,,,,,,,,,,12,,,,,,,,,,,,,,370.2374,11,left,0.0077,,1,0.5,371.2806,0,11,11,11,1,stimuli/bead_b.PNG,stimuli/bead_b.PNG,stimuli/bead_b.PNG,stimuli/bead_y.PNG,stimuli/bead_b.PNG,0,1,left
,,,,A,2024-04-29_20h57.54.456,Fish Game,2023.1.3,MacIntel,59.88023952,,,,,,,,,,,,,,,13,,,,,,,,,,,,,,371.7863,12,left,0.1004,,1,1.5,373.9046,0,12,12,12,1,stimuli/bead_g.PNG,stimuli/bead_b.PNG,stimuli/bead_b.PNG,stimuli/bead_b.PNG,stimuli/bead_y.PNG,0,1,left
,,,,A,2024-04-29_20h57.54.456,Fish Game,2023.1.3,MacIntel,59.88023952,,,,,,,,,,,,,,,14,,,,,,,,,,,,,,374.4054,13,left,0.0433,,1,1.5,376.4705,0,13,13,13,1,stimuli/bead_b.PNG,stimuli/bead_g.PNG,stimuli/bead_b.PNG,stimuli/bead_b.PNG,stimuli/bead_b.PNG,0,1,left
,,,,A,2024-04-29_20h57.54.456,Fish Game,2023.1.3,MacIntel,59.88023952,,,,,,,,,,,,,,,15,,,,,,,,,,,,,,376.9821,14,left,0.0932,,1,1,378.5904,0,14,14,14,1,stimuli/bead_b.PNG,stimuli/bead_b.PNG,stimuli/bead_g.PNG,stimuli/bead_b.PNG,stimuli/bead_b.PNG,0,1,left
,,,,A,2024-04-29_20h57.54.456,Fish Game,2023.1.3,MacIntel,59.88023952,,,,,,,,,,,,,,,1,,,,,,,,,,,,6,1condition/mainTrials4.xlsx,384.1084,0,right,0.1823,,1,1,385.8027,0,0,0,0,1,stimuli/bead_g.PNG,stimuli/blank.jpg,stimuli/blank.jpg,stimuli/blank.jpg,stimuli/blank.jpg,2,3,right
,,,,A,2024-04-29_20h57.54.456,Fish Game,2023.1.3,MacIntel,59.88023952,,,,,,,,,,,,,,,2,,,,,,,,,,,,,,386.2992,1,right,0.2048,,1,1,388.0247,0,1,1,1,1,stimuli/bead_g.PNG,stimuli/bead_g.PNG,stimuli/blank.jpg,stimuli/blank.jpg,stimuli/blank.jpg,2,3,right
,,,,A,2024-04-29_20h57.54.456,Fish Game,2023.1.3,MacIntel,59.88023952,,,,,,,,,,,,,,,3,,,,,,,,,,,,,,388.5143,2,right,0.1827,,1,0.5,389.727,0,2,2,2,1,stimuli/bead_b.PNG,stimuli/bead_g.PNG,stimuli/bead_g.PNG,stimuli/blank.jpg,stimuli/blank.jpg,2,3,right
,,,,A,2024-04-29_20h57.54.456,Fish Game,2023.1.3,MacIntel,59.88023952,,,,,,,,,,,,,,,4,,,,,,,,,,,,,,390.225,3,right,0.1306,,1,1.5,392.3902,0,3,3,3,1,stimuli/bead_g.PNG,stimuli/bead_b.PNG,stimuli/bead_g.PNG,stimuli/bead_g.PNG,stimuli/blank.jpg,2,3,right
,,,,A,2024-04-29_20h57.54.456,Fish Game,2023.1.3,MacIntel,59.88023952,,,,,,,,,,,,,,,5,,,,,,,,,,,,,,392.8821,4,right,0.104,,1,0.5,394.0091,0,4,4,4,1,stimuli/bead_g.PNG,stimuli/bead_g.PNG,stimuli/bead_b.PNG,stimuli/bead_g.PNG,stimuli/bead_g.PNG,2,3,right
,,,,A,2024-04-29_20h57.54.456,Fish Game,2023.1.3,MacIntel,59.88023952,,,,,,,,,,,,,,,6,,,,,,,,,,,,,,394.4968,5,right,0.0873,,1,1.5,396.6133,0,5,5,5,1,stimuli/bead_y.PNG,stimuli/bead_g.PNG,stimuli/bead_g.PNG,stimuli/bead_b.PNG,stimuli/bead_g.PNG,2,3,right
,,,,A,2024-04-29_20h57.54.456,Fish Game,2023.1.3,MacIntel,59.88023952,,,,,,,,,,,,,,,7,,,,,,,,,,,,,,397.1138,6,up,0.028,,0,0.5,398.1599,0,6,6,6,1,stimuli/bead_g.PNG,stimuli/bead_y.PNG,stimuli/bead_g.PNG,stimuli/bead_g.PNG,stimuli/bead_b.PNG,2,3,right
,,,,A,2024-04-29_20h57.54.456,Fish Game,2023.1.3,MacIntel,59.88023952,,,,,,,,,,,,,,,8,,,,,,,,,,,,,,398.6529,7,up,0.2773,,1,1,400.4453,0,7,7,7,1,stimuli/bead_y.PNG,stimuli/bead_g.PNG,stimuli/bead_y.PNG,stimuli/bead_g.PNG,stimuli/bead_g.PNG,1,2,up
,,,,A,2024-04-29_20h57.54.456,Fish Game,2023.1.3,MacIntel,59.88023952,,,,,,,,,,,,,,,9,,,,,,,,,,,,,,400.9484,8,up,0.096,,1,1,402.5612,0,8,8,8,1,stimuli/bead_y.PNG,stimuli/bead_y.PNG,stimuli/bead_g.PNG,stimuli/bead_y.PNG,stimuli/bead_g.PNG,1,2,up
,,,,A,2024-04-29_20h57.54.456,Fish Game,2023.1.3,MacIntel,59.88023952,,,,,,,,,,,,,,,10,,,,,,,,,,,,,,403.058,9,up,0.0145,,1,0.5,404.1086,0,9,9,9,1,stimuli/bead_g.PNG,stimuli/bead_y.PNG,stimuli/bead_y.PNG,stimuli/bead_g.PNG,stimuli/bead_y.PNG,1,2,up
,,,,A,2024-04-29_20h57.54.456,Fish Game,2023.1.3,MacIntel,59.88023952,,,,,,,,,,,,,,,11,,,,,,,,,,,,,,404.6053,10,right,0.0469,,0,0.5,405.6792,0,10,10,10,1,stimuli/bead_y.PNG,stimuli/bead_g.PNG,stimuli/bead_y.PNG,stimuli/bead_y.PNG,stimuli/bead_g.PNG,1,2,up
,,,,A,2024-04-29_20h57.54.456,Fish Game,2023.1.3,MacIntel,59.88023952,,,,,,,,,,,,,,,12,,,,,,,,,,,,,,406.1667,11,up,0.0178,,1,0.5,407.2011,0,11,11,11,1,stimuli/bead_y.PNG,stimuli/bead_y.PNG,stimuli/bead_g.PNG,stimuli/bead_y.PNG,stimuli/bead_y.PNG,1,2,up
,,,,A,2024-04-29_20h57.54.456,Fish Game,2023.1.3,MacIntel,59.88023952,,,,,,,,,,,,,,,13,,,,,,,,,,,,,,407.6931,12,up,0.1051,,1,1.5,409.8272,0,12,12,12,1,stimuli/bead_b.PNG,stimuli/bead_y.PNG,stimuli/bead_y.PNG,stimuli/bead_g.PNG,stimuli/bead_y.PNG,1,2,up
,,,,A,2024-04-29_20h57.54.456,Fish Game,2023.1.3,MacIntel,59.88023952,,,,,,,,,,,,,,,14,,,,,,,,,,,,,,410.3276,13,up,0.338,,1,1,412.1822,0,13,13,13,1,stimuli/bead_y.PNG,stimuli/bead_b.PNG,stimuli/bead_y.PNG,stimuli/bead_y.PNG,stimuli/bead_g.PNG,1,2,up
,,,,A,2024-04-29_20h57.54.456,Fish Game,2023.1.3,MacIntel,59.88023952,,,,,,,,,,,,,,,15,,,,,,,,,,,,,,412.6795,14,up,0.2108,,1,0.5,413.9104,0,14,14,14,1,stimuli/bead_y.PNG,stimuli/bead_y.PNG,stimuli/bead_b.PNG,stimuli/bead_y.PNG,stimuli/bead_y.PNG,1,2,up
,,,,A,2024-04-29_20h57.54.456,Fish Game,2023.1.3,MacIntel,59.88023952,,,,,,,,,,,,,,,1,,,,,,,,,,,,7,1condition/mainTrials3.xlsx,419.4216,0,up,0.1233,,1,1,421.0659,0,0,0,0,1,stimuli/bead_y.PNG,stimuli/blank.jpg,stimuli/blank.jpg,stimuli/blank.jpg,stimuli/blank.jpg,1,2,up
,,,,A,2024-04-29_20h57.54.456,Fish Game,2023.1.3,MacIntel,59.88023952,,,,,,,,,,,,,,,2,,,,,,,,,,,,,,421.5598,1,up,0.193,,1,1,423.2817,0,1,1,1,1,stimuli/bead_y.PNG,stimuli/bead_y.PNG,stimuli/blank.jpg,stimuli/blank.jpg,stimuli/blank.jpg,1,2,up
,,,,A,2024-04-29_20h57.54.456,Fish Game,2023.1.3,MacIntel,59.88023952,,,,,,,,,,,,,,,3,,,,,,,,,,,,,,423.7805,2,up,0.211,,1,0.5,425.0021,0,2,2,2,1,stimuli/bead_b.PNG,stimuli/bead_y.PNG,stimuli/bead_y.PNG,stimuli/blank.jpg,stimuli/blank.jpg,1,2,up
,,,,A,2024-04-29_20h57.54.456,Fish Game,2023.1.3,MacIntel,59.88023952,,,,,,,,,,,,,,,4,,,,,,,,,,,,,,425.4937,3,up,0.0701,,1,0.5,426.5838,0,3,3,3,1,stimuli/bead_y.PNG,stimuli/bead_b.PNG,stimuli/bead_y.PNG,stimuli/bead_y.PNG,stimuli/blank.jpg,1,2,up
,,,,A,2024-04-29_20h57.54.456,Fish Game,2023.1.3,MacIntel,59.88023952,,,,,,,,,,,,,,,5,,,,,,,,,,,,,,427.0733,4,up,0.2323,,1,1,428.8219,0,4,4,4,1,stimuli/bead_y.PNG,stimuli/bead_y.PNG,stimuli/bead_b.PNG,stimuli/bead_y.PNG,stimuli/bead_y.PNG,1,2,up
,,,,A,2024-04-29_20h57.54.456,Fish Game,2023.1.3,MacIntel,59.88023952,,,,,,,,,,,,,,,6,,,,,,,,,,,,,,429.3176,5,up,0.1823,,1,1.5,431.5148,0,5,5,5,1,stimuli/bead_y.PNG,stimuli/bead_y.PNG,stimuli/bead_y.PNG,stimuli/bead_b.PNG,stimuli/bead_y.PNG,1,2,up
,,,,A,2024-04-29_20h57.54.456,Fish Game,2023.1.3,MacIntel,59.88023952,,,,,,,,,,,,,,,7,,,,,,,,,,,,,,432.012,6,up,0.1374,,1,0.5,433.1663,0,6,6,6,1,stimuli/bead_b.PNG,stimuli/bead_y.PNG,stimuli/bead_y.PNG,stimuli/bead_y.PNG,stimuli/bead_b.PNG,1,2,up
,,,,A,2024-04-29_20h57.54.456,Fish Game,2023.1.3,MacIntel,59.88023952,,,,,,,,,,,,,,,8,,,,,,,,,,,,,,433.6588,7,up,0.0163,,1,1.5,435.6894,0,7,7,7,1,stimuli/bead_y.PNG,stimuli/bead_b.PNG,stimuli/bead_y.PNG,stimuli/bead_y.PNG,stimuli/bead_y.PNG,1,2,up
,,,,A,2024-04-29_20h57.54.456,Fish Game,2023.1.3,MacIntel,59.88023952,,,,,,,,,,,,,,,9,,,,,,,,,,,,,,436.1942,8,up,0.1529,,1,0.5,437.372,0,8,8,8,1,stimuli/bead_y.PNG,stimuli/bead_y.PNG,stimuli/bead_b.PNG,stimuli/bead_y.PNG,stimuli/bead_y.PNG,1,2,up
,,,,A,2024-04-29_20h57.54.456,Fish Game,2023.1.3,MacIntel,59.88023952,,,,,,,,,,,,,,,10,,,,,,,,,,,,,,437.866,9,up,0.0584,,1,1.5,439.9514,0,9,9,9,1,stimuli/bead_g.PNG,stimuli/bead_y.PNG,stimuli/bead_y.PNG,stimuli/bead_b.PNG,stimuli/bead_y.PNG,1,2,up
,,,,A,2024-04-29_20h57.54.456,Fish Game,2023.1.3,MacIntel,59.88023952,,,,,,,,,,,,,,,11,,,,,,,,,,,,,,440.4413,10,up,0.0887,,1,0.5,441.5468,0,10,10,10,1,stimuli/bead_y.PNG,stimuli/bead_g.PNG,stimuli/bead_y.PNG,stimuli/bead_y.PNG,stimuli/bead_b.PNG,1,2,up
,,,,A,2024-04-29_20h57.54.456,Fish Game,2023.1.3,MacIntel,59.88023952,,,,,,,,,,,,,,,12,,,,,,,,,,,,,,442.0398,11,up,0.0704,,1,1,443.633,0,11,11,11,1,stimuli/bead_g.PNG,stimuli/bead_y.PNG,stimuli/bead_g.PNG,stimuli/bead_y.PNG,stimuli/bead_y.PNG,1,2,up
,,,,A,2024-04-29_20h57.54.456,Fish Game,2023.1.3,MacIntel,59.88023952,,,,,,,,,,,,,,,13,,,,,,,,,,,,,,444.1302,12,up,0.1141,,1,1,445.7624,0,12,12,12,1,stimuli/bead_y.PNG,stimuli/bead_g.PNG,stimuli/bead_y.PNG,stimuli/bead_g.PNG,stimuli/bead_y.PNG,1,2,up
,,,,A,2024-04-29_20h57.54.456,Fish Game,2023.1.3,MacIntel,59.88023952,,,,,,,,,,,,,,,14,,,,,,,,,,,,,,446.25,13,up,0.004,,1,1,447.7946,0,13,13,13,1,stimuli/bead_y.PNG,stimuli/bead_y.PNG,stimuli/bead_g.PNG,stimuli/bead_y.PNG,stimuli/bead_g.PNG,1,2,up
,,,,A,2024-04-29_20h57.54.456,Fish Game,2023.1.3,MacIntel,59.88023952,,,,,,,,,,,,,,,15,,,,,,,,,,,,,,448.2884,14,up,0.1004,,1,1.5,450.3968,0,14,14,14,1,stimuli/bead_y.PNG,stimuli/bead_y.PNG,stimuli/bead_y.PNG,stimuli/bead_g.PNG,stimuli/bead_y.PNG,1,2,up
,,,,A,2024-04-29_20h57.54.456,Fish Game,2023.1.3,MacIntel,59.88023952,,,,,,,,,,,,,,,1,,,,,,,,,,,,8,1condition/mainTrials9.xlsx,455.9116,0,right,0.1292,,1,1,457.5637,0,0,0,0,1,stimuli/bead_g.PNG,stimuli/blank.jpg,stimuli/blank.jpg,stimuli/blank.jpg,stimuli/blank.jpg,2,3,right
,,,,A,2024-04-29_20h57.54.456,Fish Game,2023.1.3,MacIntel,59.88023952,,,,,,,,,,,,,,,2,,,,,,,,,,,,,,458.0521,1,right,0.245,,1,0.5,459.3152,0,1,1,1,1,stimuli/bead_g.PNG,stimuli/bead_g.PNG,stimuli/blank.jpg,stimuli/blank.jpg,stimuli/blank.jpg,2,3,right
,,,,A,2024-04-29_20h57.54.456,Fish Game,2023.1.3,MacIntel,59.88023952,,,,,,,,,,,,,,,3,,,,,,,,,,,,,,459.8159,2,right,0.0555,,1,1,461.3853,0,2,2,2,1,stimuli/bead_b.PNG,stimuli/bead_g.PNG,stimuli/bead_g.PNG,stimuli/blank.jpg,stimuli/blank.jpg,2,3,right
,,,,A,2024-04-29_20h57.54.456,Fish Game,2023.1.3,MacIntel,59.88023952,,,,,,,,,,,,,,,4,,,,,,,,,,,,,,461.8776,3,right,0.4378,,1,1,463.834,0,3,3,3,1,stimuli/bead_g.PNG,stimuli/bead_b.PNG,stimuli/bead_g.PNG,stimuli/bead_g.PNG,stimuli/blank.jpg,2,3,right
,,,,A,2024-04-29_20h57.54.456,Fish Game,2023.1.3,MacIntel,59.88023952,,,,,,,,,,,,,,,5,,,,,,,,,,,,,,464.3343,4,right,0.2478,,1,0.5,465.5895,0,4,4,4,1,stimuli/bead_g.PNG,stimuli/bead_g.PNG,stimuli/bead_b.PNG,stimuli/bead_g.PNG,stimuli/bead_g.PNG,2,3,right
,,,,A,2024-04-29_20h57.54.456,Fish Game,2023.1.3,MacIntel,59.88023952,,,,,,,,,,,,,,,6,,,,,,,,,,,,,,466.0871,5,right,0.5347,,1,1,468.1511,0,5,5,5,1,stimuli/bead_b.PNG,stimuli/bead_g.PNG,stimuli/bead_g.PNG,stimuli/bead_b.PNG,stimuli/bead_g.PNG,2,3,right
,,,,A,2024-04-29_20h57.54.456,Fish Game,2023.1.3,MacIntel,59.88023952,,,,,,,,,,,,,,,7,,,,,,,,,,,,,,468.6475,6,right,0.2628,,1,1.5,470.9298,0,6,6,6,1,stimuli/bead_g.PNG,stimuli/bead_b.PNG,stimuli/bead_g.PNG,stimuli/bead_g.PNG,stimuli/bead_b.PNG,2,3,right
,,,,A,2024-04-29_20h57.54.456,Fish Game,2023.1.3,MacIntel,59.88023952,,,,,,,,,,,,,,,8,,,,,,,,,,,,,,471.4315,7,right,0.0799,,1,1.5,473.5251,0,7,7,7,1,stimuli/bead_g.PNG,stimuli/bead_g.PNG,stimuli/bead_b.PNG,stimuli/bead_g.PNG,stimuli/bead_g.PNG,2,3,right
,,,,A,2024-04-29_20h57.54.456,Fish Game,2023.1.3,MacIntel,59.88023952,,,,,,,,,,,,,,,9,,,,,,,,,,,,,,474.0225,8,right,0.2826,,0,1,475.8252,0,8,8,8,1,stimuli/bead_b.PNG,stimuli/bead_g.PNG,stimuli/bead_g.PNG,stimuli/bead_b.PNG,stimuli/bead_g.PNG,0,1,left
,,,,A,2024-04-29_20h57.54.456,Fish Game,2023.1.3,MacIntel,59.88023952,,,,,,,,,,,,,,,10,,,,,,,,,,,,,,476.3268,9,right,0.0045,,0,1,477.8652,0,9,9,9,1,stimuli/bead_y.PNG,stimuli/bead_b.PNG,stimuli/bead_g.PNG,stimuli/bead_g.PNG,stimuli/bead_b.PNG,0,1,left
,,,,A,2024-04-29_20h57.54.456,Fish Game,2023.1.3,MacIntel,59.88023952,,,,,,,,,,,,,,,11,,,,,,,,,,,,,,478.354,10,right,0.0492,,0,0.5,479.4187,0,10,10,10,1,stimuli/bead_b.PNG,stimuli/bead_y.PNG,stimuli/bead_b.PNG,stimuli/bead_g.PNG,stimuli/bead_g.PNG,0,1,left
,,,,A,2024-04-29_20h57.54.456,Fish Game,2023.1.3,MacIntel,59.88023952,,,,,,,,,,,,,,,12,,,,,,,,,,,,,,479.9075,11,left,0.1157,,1,1,481.5326,0,11,11,11,1,stimuli/bead_b.PNG,stimuli/bead_b.PNG,stimuli/bead_y.PNG,stimuli/bead_b.PNG,stimuli/bead_g.PNG,0,1,left
,,,,A,2024-04-29_20h57.54.456,Fish Game,2023.1.3,MacIntel,59.88023952,,,,,,,,,,,,,,,13,,,,,,,,,,,,,,482.0244,12,left,0.0935,,1,0.5,483.1401,0,12,12,12,1,stimuli/bead_b.PNG,stimuli/bead_b.PNG,stimuli/bead_b.PNG,stimuli/bead_y.PNG,stimuli/bead_b.PNG,0,1,left
,,,,A,2024-04-29_20h57.54.456,Fish Game,2023.1.3,MacIntel,59.88023952,,,,,,,,,,,,,,,14,,,,,,,,,,,,,,483.6208,13,left,0.3946,,1,1,485.5291,0,13,13,13,1,stimuli/bead_g.PNG,stimuli/bead_b.PNG,stimuli/bead_b.PNG,stimuli/bead_b.PNG,stimuli/bead_y.PNG,0,1,left
,,,,A,2024-04-29_20h57.54.456,Fish Game,2023.1.3,MacIntel,59.88023952,,,,,,,,,,,,,,,15,,,,,,,,,,,,,,486.0292,14,left,0.0006,,1,1.5,488.0671,0,14,14,14,1,stimuli/bead_b.PNG,stimuli/bead_g.PNG,stimuli/bead_b.PNG,stimuli/bead_b.PNG,stimuli/bead_b.PNG,0,1,left
,,,,A,2024-04-29_20h57.54.456,Fish Game,2023.1.3,MacIntel,59.88023952,,,,,,,,,,,,,,,1,,,,,,,,,,,,9,1condition/mainTrials5.xlsx,493.5781,0,left,0.1889,,1,1,495.2758,0,0,0,0,1,stimuli/bead_b.PNG,stimuli/blank.jpg,stimuli/blank.jpg,stimuli/blank.jpg,stimuli/blank.jpg,0,1,left
,,,,A,2024-04-29_20h57.54.456,Fish Game,2023.1.3,MacIntel,59.88023952,,,,,,,,,,,,,,,2,,,,,,,,,,,,,,495.7921,1,left,0.1045,,1,1,497.4203,0,1,1,1,1,stimuli/bead_b.PNG,stimuli/bead_b.PNG,stimuli/blank.jpg,stimuli/blank.jpg,stimuli/blank.jpg,0,1,left
,,,,A,2024-04-29_20h57.54.456,Fish Game,2023.1.3,MacIntel,59.88023952,,,,,,,,,,,,,,,3,,,,,,,,,,,,,,497.9089,2,left,0.0734,,1,1,499.5025,0,2,2,2,1,stimuli/bead_y.PNG,stimuli/bead_b.PNG,stimuli/bead_b.PNG,stimuli/blank.jpg,stimuli/blank.jpg,0,1,left
,,,,A,2024-04-29_20h57.54.456,Fish Game,2023.1.3,MacIntel,59.88023952,,,,,,,,,,,,,,,4,,,,,,,,,,,,,,499.9916,3,left,0.1355,,1,1.5,502.1502,0,3,3,3,1,stimuli/bead_b.PNG,stimuli/bead_y.PNG,stimuli/bead_b.PNG,stimuli/bead_b.PNG,stimuli/blank.jpg,0,1,left
,,,,A,2024-04-29_20h57.54.456,Fish Game,2023.1.3,MacIntel,59.88023952,,,,,,,,,,,,,,,5,,,,,,,,,,,,,,502.6513,4,left,0.0675,,1,1,504.2455,0,4,4,4,1,stimuli/bead_b.PNG,stimuli/bead_b.PNG,stimuli/bead_y.PNG,stimuli/bead_b.PNG,stimuli/bead_b.PNG,0,1,left
,,,,A,2024-04-29_20h57.54.456,Fish Game,2023.1.3,MacIntel,59.88023952,,,,,,,,,,,,,,,6,,,,,,,,,,,,,,504.7364,5,left,0.0313,,0,1.5,506.7788,0,5,5,5,1,stimuli/bead_g.PNG,stimuli/bead_b.PNG,stimuli/bead_b.PNG,stimuli/bead_y.PNG,stimuli/bead_b.PNG,2,3,right
,,,,A,2024-04-29_20h57.54.456,Fish Game,2023.1.3,MacIntel,59.88023952,,,,,,,,,,,,,,,7,,,,,,,,,,,,,,507.2717,6,left,0.1087,,0,0.5,508.3958,0,6,6,6,1,stimuli/bead_g.PNG,stimuli/bead_g.PNG,stimuli/bead_b.PNG,stimuli/bead_b.PNG,stimuli/bead_y.PNG,2,2,right
,,,,A,2024-04-29_20h57.54.456,Fish Game,2023.1.3,MacIntel,59.88023952,,,,,,,,,,,,,,,8,,,,,,,,,,,,,,508.8843,7,left,0.1862,,0,1,510.6044,0,7,7,7,1,stimuli/bead_b.PNG,stimuli/bead_g.PNG,stimuli/bead_g.PNG,stimuli/bead_b.PNG,stimuli/bead_b.PNG,2,2,right
,,,,A,2024-04-29_20h57.54.456,Fish Game,2023.1.3,MacIntel,59.88023952,,,,,,,,,,,,,,,9,,,,,,,,,,,,,,511.1099,8,left,0.2368,,0,0.5,512.374,0,8,8,8,1,stimuli/bead_g.PNG,stimuli/bead_b.PNG,stimuli/bead_g.PNG,stimuli/bead_g.PNG,stimuli/bead_b.PNG,2,2,right
,,,,A,2024-04-29_20h57.54.456,Fish Game,2023.1.3,MacIntel,59.88023952,,,,,,,,,,,,,,,10,,,,,,,,,,,,,,512.8642,9,left,0.0686,,0,1.5,514.9692,0,9,9,9,1,stimuli/bead_b.PNG,stimuli/bead_g.PNG,stimuli/bead_b.PNG,stimuli/bead_g.PNG,stimuli/bead_g.PNG,2,2,right
,,,,A,2024-04-29_20h57.54.456,Fish Game,2023.1.3,MacIntel,59.88023952,,,,,,,,,,,,,,,11,,,,,,,,,,,,,,515.4728,10,left,0.2069,,0,1,517.2063,0,10,10,10,1,stimuli/bead_g.PNG,stimuli/bead_b.PNG,stimuli/bead_g.PNG,stimuli/bead_b.PNG,stimuli/bead_g.PNG,2,2,right
,,,,A,2024-04-29_20h57.54.456,Fish Game,2023.1.3,MacIntel,59.88023952,,,,,,,,,,,,,,,12,,,,,,,,,,,,,,517.7036,11,left,0.0292,,0,1.5,519.7461,0,11,11,11,1,stimuli/bead_g.PNG,stimuli/bead_g.PNG,stimuli/bead_b.PNG,stimuli/bead_g.PNG,stimuli/bead_b.PNG,2,2,right
,,,,A,2024-04-29_20h57.54.456,Fish Game,2023.1.3,MacIntel,59.88023952,,,,,,,,,,,,,,,13,,,,,,,,,,,,,,520.2421,12,right,0.0312,,1,0.5,521.2836,0,12,12,12,1,stimuli/bead_g.PNG,stimuli/bead_g.PNG,stimuli/bead_g.PNG,stimuli/bead_b.PNG,stimuli/bead_g.PNG,2,3,right
,,,,A,2024-04-29_20h57.54.456,Fish Game,2023.1.3,MacIntel,59.88023952,,,,,,,,,,,,,,,14,,,,,,,,,,,,,,521.778,13,right,0.3186,,1,0.5,523.1142,0,13,13,13,1,stimuli/bead_y.PNG,stimuli/bead_g.PNG,stimuli/bead_g.PNG,stimuli/bead_g.PNG,stimuli/bead_b.PNG,2,3,right
,,,,A,2024-04-29_20h57.54.456,Fish Game,2023.1.3,MacIntel,59.88023952,,,,,,,,,,,,,,,15,,,,,,,,,,,,,,523.6159,14,right,0.2065,,1,1.5,525.8497,0,14,14,14,1,stimuli/bead_g.PNG,stimuli/bead_y.PNG,stimuli/bead_g.PNG,stimuli/bead_g.PNG,stimuli/bead_g.PNG,2,3,right
,,,,A,2024-04-29_20h57.54.456,Fish Game,2023.1.3,MacIntel,59.88023952,,,,,,,,,,,,,,,1,,,,,,,,,,,,10,1condition/mainTrials10.xlsx,531.3624,0,up,0.1814,,0,0.5,532.5543,0,0,0,0,1,stimuli/bead_y.PNG,stimuli/blank.jpg,stimuli/blank.jpg,stimuli/blank.jpg,stimuli/blank.jpg,0,1,left
,,,,A,2024-04-29_20h57.54.456,Fish Game,2023.1.3,MacIntel,59.88023952,,,,,,,,,,,,,,,2,,,,,,,,,,,,,,533.0614,1,up,0.2868,,0,0.5,534.3651,0,1,1,1,1,stimuli/bead_b.PNG,stimuli/bead_y.PNG,stimuli/blank.jpg,stimuli/blank.jpg,stimuli/blank.jpg,0,1,left
,,,,A,2024-04-29_20h57.54.456,Fish Game,2023.1.3,MacIntel,59.88023952,,,,,,,,,,,,,,,3,,,,,,,,,,,,,,534.8722,2,up,0.1518,,0,1,536.5544,0,2,2,2,1,stimuli/bead_b.PNG,stimuli/bead_b.PNG,stimuli/bead_y.PNG,stimuli/blank.jpg,stimuli/blank.jpg,0,1,left
,,,,A,2024-04-29_20h57.54.456,Fish Game,2023.1.3,MacIntel,59.88023952,,,,,,,,,,,,,,,4,,,,,,,,,,,,,,537.0557,3,left,0.1146,,1,1.5,539.1938,0,3,3,3,1,stimuli/bead_b.PNG,stimuli/bead_b.PNG,stimuli/bead_b.PNG,stimuli/bead_y.PNG,stimuli/blank.jpg,0,1,left
,,,,A,2024-04-29_20h57.54.456,Fish Game,2023.1.3,MacIntel,59.88023952,,,,,,,,,,,,,,,5,,,,,,,,,,,,,,539.6899,4,left,0.054,,1,1,541.2642,0,4,4,4,1,stimuli/bead_b.PNG,stimuli/bead_b.PNG,stimuli/bead_b.PNG,stimuli/bead_b.PNG,stimuli/bead_y.PNG,0,1,left
,,,,A,2024-04-29_20h57.54.456,Fish Game,2023.1.3,MacIntel,59.88023952,,,,,,,,,,,,,,,6,,,,,,,,,,,,,,541.7531,5,left,0.0617,,1,0.5,542.8248,0,5,5,5,1,stimuli/bead_g.PNG,stimuli/bead_b.PNG,stimuli/bead_b.PNG,stimuli/bead_b.PNG,stimuli/bead_b.PNG,0,1,left
,,,,A,2024-04-29_20h57.54.456,Fish Game,2023.1.3,MacIntel,59.88023952,,,,,,,,,,,,,,,7,,,,,,,,,,,,,,543.325,6,left,0.0187,,1,1.5,545.3754,0,6,6,6,1,stimuli/bead_b.PNG,stimuli/bead_g.PNG,stimuli/bead_b.PNG,stimuli/bead_b.PNG,stimuli/bead_b.PNG,0,1,left
,,,,A,2024-04-29_20h57.54.456,Fish Game,2023.1.3,MacIntel,59.88023952,,,,,,,,,,,,,,,8,,,,,,,,,,,,,,545.8741,7,left,0.1407,,1,1,547.5247,0,7,7,7,1,stimuli/bead_b.PNG,stimuli/bead_b.PNG,stimuli/bead_g.PNG,stimuli/bead_b.PNG,stimuli/bead_b.PNG,0,1,left
,,,,A,2024-04-29_20h57.54.456,Fish Game,2023.1.3,MacIntel,59.88023952,,,,,,,,,,,,,,,9,,,,,,,,,,,,,,548.0246,8,left,0.109,,1,1,549.6419,0,8,8,8,1,stimuli/bead_y.PNG,stimuli/bead_b.PNG,stimuli/bead_b.PNG,stimuli/bead_g.PNG,stimuli/bead_b.PNG,0,1,left
,,,,A,2024-04-29_20h57.54.456,Fish Game,2023.1.3,MacIntel,59.88023952,,,,,,,,,,,,,,,10,,,,,,,,,,,,,,550.1468,9,left,0.1166,,1,1,551.7942,0,9,9,9,1,stimuli/bead_b.PNG,stimuli/bead_y.PNG,stimuli/bead_b.PNG,stimuli/bead_b.PNG,stimuli/bead_g.PNG,0,1,left
,,,,A,2024-04-29_20h57.54.456,Fish Game,2023.1.3,MacIntel,59.88023952,,,,,,,,,,,,,,,11,,,,,,,,,,,,,,552.2944,10,left,0.0148,,0,0.5,553.3305,0,10,10,10,1,stimuli/bead_g.PNG,stimuli/bead_b.PNG,stimuli/bead_y.PNG,stimuli/bead_b.PNG,stimuli/bead_b.PNG,2,3,right
,,,,A,2024-04-29_20h57.54.456,Fish Game,2023.1.3,MacIntel,59.88023952,,,,,,,,,,,,,,,12,,,,,,,,,,,,,,553.8338,11,left,0.0817,,0,0.5,554.9465,0,11,11,11,1,stimuli/bead_b.PNG,stimuli/bead_g.PNG,stimuli/bead_b.PNG,stimuli/bead_y.PNG,stimuli/bead_b.PNG,2,3,right
,,,,A,2024-04-29_20h57.54.456,Fish Game,2023.1.3,MacIntel,59.88023952,,,,,,,,,,,,,,,13,,,,,,,,,,,,,,555.4501,12,left,0.1493,,0,0.5,556.6316,0,12,12,12,1,stimuli/bead_g.PNG,stimuli/bead_b.PNG,stimuli/bead_g.PNG,stimuli/bead_b.PNG,stimuli/bead_y.PNG,2,3,right
,,,,A,2024-04-29_20h57.54.456,Fish Game,2023.1.3,MacIntel,59.88023952,,,,,,,,,,,,,,,14,,,,,,,,,,,,,,557.1332,13,right,0.1701,,1,1.5,559.3326,0,13,13,13,1,stimuli/bead_g.PNG,stimuli/bead_g.PNG,stimuli/bead_b.PNG,stimuli/bead_g.PNG,stimuli/bead_b.PNG,2,3,right
,,,,A,2024-04-29_20h57.54.456,Fish Game,2023.1.3,MacIntel,59.88023952,,,,,,,,,,,,,,,15,,,,,,,,,,,,,,559.8312,14,right,0.1201,,1,0.5,560.9649,0,14,14,14,1,stimuli/bead_g.PNG,stimuli/bead_g.PNG,stimuli/bead_g.PNG,stimuli/bead_b.PNG,stimuli/bead_g.PNG,2,3,right
